* Measurement data measured by REW V5.20.9
* Source: Input device not selected, no input selected, L, volume: no control. Timing signal peak level -5,4 dBFS, measurement signal peak level -5,6 dBFS
* Format: 256k Log Swept Sine, 1 sweep at -12,0 dBFS using an acoustic timing reference
* Dated: 01.01.2024 21:11:51
* REW Settings:
*  C-weighting compensation: Off
*  Target level: 75.0 dB
* Note: Delay -0,0179 ms (-6,2 mm, -0,24 in) using estimated IR delay relative to Acoustic reference on  R with no timing offset
* Measurement: 7Hz Timeless
* Smoothing: 1/3 octave
* Frequency Step: 96 ppo
* Start Frequency: 20.187378 Hz
*
* Freq(Hz) SPL(dB) Phase(degrees)
20.187378 115.240 -117.2414
20.333664 115.252 -117.3899
20.481010 115.265 -117.5679
20.629424 115.281 -117.7738
20.778913 115.299 -118.0057
20.929486 115.319 -118.2616
21.081150 115.341 -118.5394
21.233912 115.364 -118.8371
21.387782 115.389 -119.1525
21.542767 115.415 -119.4836
21.698874 115.443 -119.8285
21.856113 115.471 -120.1854
22.014492 115.500 -120.5528
22.174018 115.530 -120.9291
22.334700 115.560 -121.3134
22.496546 115.590 -121.7046
22.659566 115.620 -122.1022
22.823766 115.651 -122.5056
22.989157 115.681 -122.9148
23.155745 115.712 -123.3297
23.323542 115.742 -123.7503
23.492554 115.771 -124.1768
23.662790 115.801 -124.6094
23.834261 115.831 -125.0483
24.006973 115.860 -125.4936
24.180938 115.889 -125.9451
24.356163 115.918 -126.4026
24.532658 115.947 -126.8656
24.710431 115.977 -127.3334
24.889493 116.006 -127.8052
25.069853 116.036 -128.2798
25.251519 116.066 -128.7559
25.434502 116.096 -129.2321
25.618811 116.127 -129.7071
25.804456 116.159 -130.1792
25.991445 116.190 -130.6472
26.179790 116.222 -131.1096
26.369500 116.254 -131.5653
26.560584 116.286 -132.0133
26.753053 116.318 -132.4531
26.946917 116.349 -132.8840
27.142185 116.380 -133.3061
27.338869 116.411 -133.7194
27.536977 116.440 -134.1243
27.736522 116.469 -134.5216
27.937512 116.496 -134.9120
28.139959 116.522 -135.2967
28.343872 116.547 -135.6768
28.549264 116.571 -136.0535
28.756143 116.593 -136.4279
28.964522 116.615 -136.8013
29.174411 116.635 -137.1747
29.385821 116.654 -137.5490
29.598763 116.673 -137.9249
29.813248 116.690 -138.3031
30.029287 116.707 -138.6839
30.246891 116.723 -139.0676
30.466073 116.739 -139.4543
30.686842 116.754 -139.8439
30.909212 116.769 -140.2361
31.133193 116.783 -140.6308
31.358797 116.798 -141.0276
31.586035 116.812 -141.4261
31.814921 116.826 -141.8259
32.045465 116.840 -142.2268
32.277680 116.854 -142.6282
32.511577 116.867 -143.0300
32.747169 116.880 -143.4316
32.984469 116.894 -143.8329
33.223488 116.907 -144.2337
33.464239 116.919 -144.6336
33.706735 116.932 -145.0324
33.950987 116.944 -145.4302
34.197010 116.957 -145.8266
34.444816 116.968 -146.2217
34.694417 116.980 -146.6154
34.945827 116.991 -147.0077
35.199059 117.002 -147.3985
35.454126 117.013 -147.7880
35.711041 117.024 -148.1762
35.969818 117.034 -148.5630
36.230470 117.044 -148.9486
36.493011 117.053 -149.3329
36.757455 117.063 -149.7159
37.023814 117.072 -150.0976
37.292104 117.080 -150.4780
37.562338 117.089 -150.8571
37.834530 117.097 -151.2347
38.108695 117.105 -151.6109
38.384846 117.113 -151.9856
38.662999 117.120 -152.3588
38.943167 117.127 -152.7305
39.225365 117.134 -153.1007
39.509608 117.140 -153.4695
39.795911 117.146 -153.8370
40.084289 117.151 -154.2031
40.374756 117.156 -154.5681
40.667328 117.161 -154.9318
40.962020 117.165 -155.2945
41.258848 117.169 -155.6560
41.557827 117.172 -156.0164
41.858972 117.175 -156.3758
42.162299 117.178 -156.7341
42.467824 117.180 -157.0912
42.775564 117.182 -157.4471
43.085533 117.184 -157.8019
43.397749 117.185 -158.1556
43.712227 117.186 -158.5080
44.028983 117.187 -158.8593
44.348036 117.187 -159.2095
44.669400 117.187 -159.5585
44.993093 117.186 -159.9065
45.319131 117.186 -160.2534
45.647532 117.185 -160.5992
45.978313 117.184 -160.9440
46.311491 117.182 -161.2878
46.647083 117.180 -161.6307
46.985107 117.178 -161.9725
47.325581 117.176 -162.3135
47.668521 117.174 -162.6536
48.013947 117.171 -162.9927
48.361876 117.168 -163.3310
48.712326 117.165 -163.6683
49.065315 117.162 -164.0047
49.420863 117.158 -164.3401
49.778987 117.154 -164.6744
50.139706 117.150 -165.0074
50.503039 117.146 -165.3392
50.869005 117.142 -165.6695
51.237623 117.137 -165.9982
51.608912 117.132 -166.3253
51.982891 117.127 -166.6505
52.359580 117.121 -166.9740
52.739000 117.115 -167.2955
53.121168 117.109 -167.6152
53.506106 117.102 -167.9328
53.893833 117.096 -168.2486
54.284370 117.088 -168.5625
54.677737 117.081 -168.8745
55.073955 117.074 -169.1847
55.473043 117.066 -169.4932
55.875024 117.058 -169.7999
56.279917 117.049 -170.1050
56.687745 117.041 -170.4086
57.098527 117.032 -170.7108
57.512287 117.023 -171.0115
57.929045 117.013 -171.3110
58.348822 117.004 -171.6092
58.771642 116.994 -171.9063
59.197525 116.984 -172.2022
59.626495 116.974 -172.4971
60.058573 116.964 -172.7910
60.493782 116.953 -173.0838
60.932145 116.943 -173.3756
61.373685 116.932 -173.6664
61.818424 116.920 -173.9561
62.266386 116.909 -174.2446
62.717593 116.897 -174.5320
63.172071 116.885 -174.8182
63.629842 116.872 -175.1031
64.090930 116.860 -175.3867
64.555359 116.847 -175.6690
65.023154 116.833 -175.9500
65.494339 116.820 -176.2295
65.968938 116.806 -176.5077
66.446976 116.792 -176.7844
66.928478 116.777 -177.0597
67.413469 116.763 -177.3336
67.901975 116.748 -177.6060
68.394021 116.732 -177.8769
68.889632 116.717 -178.1463
69.388835 116.701 -178.4142
69.891655 116.685 -178.6805
70.398118 116.668 -178.9452
70.908252 116.651 -179.2082
71.422083 116.634 -179.4697
71.939636 116.617 -179.7294
72.460941 116.599 -179.9874
72.986023 116.581 179.7562
73.514909 116.563 179.5016
74.047629 116.544 179.2487
74.584208 116.526 178.9976
75.124676 116.507 178.7483
75.669061 116.487 178.5007
76.217390 116.468 178.2548
76.769692 116.448 178.0108
77.325997 116.428 177.7685
77.886333 116.408 177.5280
78.450730 116.388 177.2894
79.019216 116.367 177.0524
79.591822 116.346 176.8173
80.168577 116.325 176.5840
80.749512 116.304 176.3524
81.334656 116.282 176.1225
81.924040 116.261 175.8943
82.517696 116.239 175.6678
83.115653 116.217 175.4430
83.717943 116.195 175.2198
84.324598 116.172 174.9982
84.935649 116.149 174.7783
85.551128 116.127 174.5600
86.171066 116.103 174.3433
86.795497 116.080 174.1283
87.424453 116.056 173.9149
88.057967 116.032 173.7032
88.696071 116.008 173.4933
89.338800 115.984 173.2852
89.986185 115.959 173.0789
90.638262 115.934 172.8746
91.295065 115.909 172.6722
91.956626 115.883 172.4719
92.622982 115.857 172.2737
93.294166 115.831 172.0778
93.970214 115.804 171.8840
94.651161 115.778 171.6926
95.337042 115.751 171.5036
96.027894 115.723 171.3170
96.723752 115.695 171.1329
97.424652 115.667 170.9514
98.130631 115.639 170.7726
98.841726 115.611 170.5963
99.557974 115.582 170.4228
100.279412 115.553 170.2521
101.006078 115.523 170.0841
101.738010 115.494 169.9190
102.475245 115.464 169.7568
103.217823 115.433 169.5976
103.965782 115.403 169.4413
104.719161 115.372 169.2881
105.477999 115.341 169.1379
106.242336 115.310 168.9909
107.012212 115.279 168.8471
107.787666 115.248 168.7066
108.568740 115.216 168.5694
109.355474 115.185 168.4356
110.147909 115.153 168.3054
110.946086 115.122 168.1787
111.750047 115.090 168.0557
112.559834 115.058 167.9365
113.375489 115.027 167.8210
114.197055 114.995 167.7095
115.024574 114.963 167.6019
115.858089 114.932 167.4982
116.697645 114.901 167.3984
117.543284 114.870 167.3026
118.395051 114.839 167.2105
119.252990 114.809 167.1222
120.117147 114.778 167.0375
120.987565 114.749 166.9562
121.864291 114.719 166.8781
122.747370 114.690 166.8029
123.636848 114.662 166.7303
124.532771 114.634 166.6599
125.435187 114.607 166.5913
126.344142 114.580 166.5241
127.259684 114.553 166.4578
128.181860 114.527 166.3917
129.110718 114.502 166.3254
130.046308 114.476 166.2584
130.988677 114.451 166.1902
131.937875 114.427 166.1204
132.893951 114.403 166.0486
133.856956 114.378 165.9746
134.826938 114.354 165.8982
135.803950 114.330 165.8192
136.788041 114.306 165.7376
137.779264 114.281 165.6537
138.777669 114.257 165.5674
139.783309 114.232 165.4790
140.796237 114.206 165.3888
141.816504 114.181 165.2971
142.844165 114.155 165.2043
143.879273 114.128 165.1108
144.921881 114.101 165.0170
145.972045 114.073 164.9234
147.029819 114.045 164.8303
148.095257 114.016 164.7382
149.168417 113.986 164.6474
150.249353 113.956 164.5585
151.338121 113.925 164.4716
152.434780 113.894 164.3873
153.539385 113.862 164.3058
154.651995 113.830 164.2274
155.772667 113.797 164.1525
156.901460 113.764 164.0811
158.038432 113.730 164.0137
159.183644 113.696 163.9503
160.337154 113.662 163.8912
161.499023 113.627 163.8365
162.669312 113.592 163.7865
163.848081 113.556 163.7411
165.035392 113.521 163.7007
166.231306 113.485 163.6652
167.435887 113.449 163.6348
168.649196 113.413 163.6096
169.871298 113.377 163.5896
171.102255 113.340 163.5749
172.342133 113.304 163.5656
173.590995 113.268 163.5616
174.848907 113.232 163.5630
176.115934 113.196 163.5697
177.392143 113.161 163.5817
178.677599 113.125 163.5989
179.972371 113.090 163.6212
181.276525 113.056 163.6483
182.590129 113.022 163.6800
183.913252 112.988 163.7161
185.245964 112.955 163.7562
186.588332 112.922 163.8000
187.940428 112.890 163.8469
189.302322 112.859 163.8966
190.674085 112.828 163.9485
192.055788 112.798 164.0022
193.447503 112.769 164.0569
194.849303 112.741 164.1124
196.261262 112.713 164.1678
197.683452 112.686 164.2228
199.115948 112.659 164.2769
200.558824 112.633 164.3298
202.012156 112.607 164.3810
203.476019 112.582 164.4304
204.950490 112.557 164.4778
206.435646 112.532 164.5231
207.931564 112.508 164.5664
209.438322 112.483 164.6078
210.955998 112.458 164.6474
212.484672 112.434 164.6855
214.024424 112.409 164.7225
215.575333 112.384 164.7586
217.137481 112.359 164.7943
218.710948 112.334 164.8299
220.295818 112.308 164.8658
221.892172 112.282 164.9025
223.500094 112.256 164.9401
225.119668 112.230 164.9789
226.750978 112.204 165.0193
228.394109 112.177 165.0614
230.049147 112.150 165.1053
231.716178 112.124 165.1512
233.395289 112.097 165.1989
235.086567 112.070 165.2485
236.790102 112.043 165.3000
238.505980 112.016 165.3531
240.234293 111.990 165.4078
241.975130 111.963 165.4639
243.728581 111.936 165.5212
245.494739 111.910 165.5796
247.273695 111.884 165.6389
249.065542 111.857 165.6989
250.870374 111.831 165.7597
252.688284 111.805 165.8211
254.519367 111.778 165.8831
256.363720 111.752 165.9459
258.221437 111.726 166.0094
260.092616 111.699 166.0738
261.977354 111.673 166.1392
263.875750 111.646 166.2058
265.787903 111.619 166.2737
267.713911 111.592 166.3433
269.653877 111.565 166.4146
271.607900 111.538 166.4878
273.576083 111.510 166.5632
275.558528 111.483 166.6408
277.555338 111.455 166.7208
279.566619 111.428 166.8033
281.592474 111.400 166.8885
283.633009 111.372 166.9764
285.688331 111.344 167.0670
287.758546 111.316 167.1605
289.843763 111.289 167.2567
291.944090 111.261 167.3557
294.059638 111.233 167.4574
296.190515 111.205 167.5620
298.336833 111.178 167.6691
300.498705 111.150 167.7790
302.676243 111.123 167.8915
304.869559 111.096 168.0065
307.078770 111.069 168.1240
309.303989 111.042 168.2440
311.545334 111.015 168.3663
313.802919 110.989 168.4909
316.076865 110.962 168.6179
318.367288 110.936 168.7470
320.674309 110.910 168.8784
322.998047 110.884 169.0119
325.338624 110.858 169.1476
327.696162 110.832 169.2853
330.070783 110.806 169.4252
332.462612 110.781 169.5672
334.871773 110.756 169.7112
337.298392 110.731 169.8573
339.742595 110.706 170.0054
342.204510 110.681 170.1556
344.684265 110.656 170.3079
347.181989 110.632 170.4622
349.697813 110.608 170.6186
352.231868 110.584 170.7769
354.784285 110.560 170.9373
357.355198 110.536 171.0997
359.944741 110.512 171.2642
362.553049 110.489 171.4306
365.180258 110.465 171.5990
367.826505 110.442 171.7693
370.491927 110.419 171.9417
373.176665 110.397 172.1160
375.880856 110.374 172.2922
378.604644 110.352 172.4704
381.348169 110.330 172.6505
384.111575 110.308 172.8325
386.895006 110.286 173.0165
389.698607 110.264 173.2023
392.522524 110.243 173.3901
395.366904 110.222 173.5797
398.231895 110.201 173.7712
401.117648 110.180 173.9647
404.024312 110.160 174.1599
406.952038 110.140 174.3571
409.900981 110.120 174.5561
412.871292 110.100 174.7570
415.863128 110.080 174.9597
418.876643 110.061 175.1643
421.911996 110.042 175.3708
424.969344 110.023 175.5791
428.048847 110.004 175.7892
431.150666 109.986 176.0012
434.274961 109.968 176.2151
437.421897 109.950 176.4307
440.591636 109.932 176.6483
443.784345 109.915 176.8676
447.000189 109.897 177.0888
450.239337 109.880 177.3118
453.501956 109.864 177.5366
456.788219 109.847 177.7632
460.098294 109.831 177.9917
463.432356 109.815 178.2220
466.790578 109.799 178.4541
470.173135 109.784 178.6880
473.580203 109.768 178.9238
477.011961 109.753 179.1613
480.468586 109.739 179.4007
483.950259 109.724 179.6419
487.457163 109.710 179.8850
490.989478 109.696 -179.8700
494.547390 109.682 -179.6232
498.131084 109.669 -179.3745
501.740748 109.656 -179.1239
505.376568 109.643 -178.8714
509.038735 109.630 -178.6170
512.727439 109.618 -178.3607
516.442874 109.606 -178.1024
520.185232 109.594 -177.8421
523.954708 109.583 -177.5798
527.751500 109.571 -177.3156
531.575805 109.560 -177.0493
535.427822 109.550 -176.7810
539.307753 109.539 -176.5106
543.215800 109.529 -176.2381
547.152165 109.520 -175.9636
551.117055 109.510 -175.6869
555.110677 109.501 -175.4081
559.133237 109.492 -175.1272
563.184947 109.483 -174.8440
567.266018 109.475 -174.5587
571.376661 109.467 -174.2711
575.517092 109.460 -173.9814
579.687526 109.453 -173.6893
583.888181 109.446 -173.3950
588.119275 109.439 -173.0983
592.381030 109.433 -172.7993
596.673667 109.427 -172.4980
600.997410 109.422 -172.1943
605.352485 109.417 -171.8882
609.739119 109.412 -171.5796
614.157540 109.408 -171.2687
618.607979 109.404 -170.9552
623.090667 109.401 -170.6393
627.605839 109.398 -170.3208
632.153730 109.395 -169.9999
636.734576 109.393 -169.6764
641.348617 109.391 -169.3503
645.996094 109.390 -169.0216
650.677248 109.389 -168.6903
655.392323 109.389 -168.3564
660.141566 109.389 -168.0199
664.925224 109.390 -167.6807
669.743546 109.391 -167.3388
674.596784 109.393 -166.9942
679.485191 109.395 -166.6469
684.409020 109.398 -166.2969
689.368530 109.402 -165.9442
694.363979 109.406 -165.5888
699.395626 109.411 -165.2307
704.463736 109.417 -164.8698
709.568570 109.423 -164.5063
714.710396 109.430 -164.1400
719.889483 109.438 -163.7712
725.106099 109.446 -163.3997
730.360516 109.455 -163.0256
735.653010 109.465 -162.6489
740.983855 109.476 -162.2697
746.353329 109.487 -161.8881
751.761713 109.500 -161.5040
757.209288 109.513 -161.1176
762.696339 109.527 -160.7290
768.223151 109.542 -160.3382
773.790013 109.558 -159.9453
779.397214 109.575 -159.5504
785.045047 109.593 -159.1537
790.733808 109.612 -158.7553
796.463791 109.632 -158.3553
802.235296 109.654 -157.9539
808.048623 109.676 -157.5512
813.904077 109.699 -157.1474
819.801961 109.724 -156.7428
825.742584 109.749 -156.3375
831.726255 109.776 -155.9317
837.753287 109.804 -155.5257
843.823992 109.833 -155.1197
849.938689 109.863 -154.7140
856.097695 109.895 -154.3088
862.301332 109.928 -153.9044
868.549922 109.962 -153.5010
874.843793 109.997 -153.0990
881.183272 110.033 -152.6987
887.568689 110.071 -152.3003
894.000378 110.110 -151.9042
900.478673 110.150 -151.5106
907.003913 110.192 -151.1199
913.576437 110.235 -150.7323
920.196588 110.279 -150.3482
926.864712 110.324 -149.9679
933.581156 110.370 -149.5916
940.346270 110.418 -149.2197
947.160407 110.466 -148.8523
954.023921 110.516 -148.4899
960.937172 110.567 -148.1326
967.900519 110.619 -147.7807
974.914325 110.672 -147.4343
981.978956 110.725 -147.0939
989.094780 110.780 -146.7594
996.262169 110.836 -146.4312
1003.481495 110.893 -146.1093
1010.753136 110.950 -145.7940
1018.077470 111.009 -145.4854
1025.454879 111.068 -145.1835
1032.885748 111.127 -144.8885
1040.370463 111.188 -144.6006
1047.909417 111.249 -144.3197
1055.503000 111.311 -144.0459
1063.151610 111.373 -143.7793
1070.855645 111.436 -143.5199
1078.615506 111.499 -143.2677
1086.431599 111.563 -143.0228
1094.304330 111.627 -142.7852
1102.234110 111.692 -142.5549
1110.221353 111.757 -142.3318
1118.266475 111.822 -142.1160
1126.369895 111.888 -141.9075
1134.532035 111.954 -141.7062
1142.753322 112.020 -141.5121
1151.034184 112.086 -141.3253
1159.375052 112.152 -141.1457
1167.776361 112.219 -140.9733
1176.238550 112.286 -140.8081
1184.762060 112.353 -140.6500
1193.347334 112.419 -140.4992
1201.994821 112.486 -140.3555
1210.704971 112.553 -140.2189
1219.478238 112.620 -140.0895
1228.315080 112.686 -139.9673
1237.215957 112.752 -139.8521
1246.181334 112.818 -139.7439
1255.211678 112.884 -139.6426
1264.307459 112.949 -139.5482
1273.469152 113.014 -139.4605
1282.697235 113.079 -139.3793
1291.992188 113.143 -139.3043
1301.354495 113.206 -139.2351
1310.784647 113.268 -139.1714
1320.283132 113.330 -139.1125
1329.850448 113.390 -139.0579
1339.487093 113.450 -139.0066
1349.193569 113.508 -138.9579
1358.970381 113.566 -138.9105
1368.818041 113.622 -138.8633
1378.737061 113.677 -138.8147
1388.727958 113.731 -138.7633
1398.791253 113.784 -138.7074
1408.927471 113.836 -138.6450
1419.137140 113.887 -138.5743
1429.420793 113.938 -138.4935
1439.778965 113.988 -138.4005
1450.212197 114.038 -138.2935
1460.721033 114.088 -138.1711
1471.306019 114.139 -138.0318
1481.967709 114.191 -137.8746
1492.706658 114.244 -137.6992
1503.523426 114.300 -137.5055
1514.418576 114.358 -137.2941
1525.392678 114.420 -137.0663
1536.446302 114.485 -136.8240
1547.580025 114.553 -136.5695
1558.794428 114.627 -136.3059
1570.090095 114.704 -136.0366
1581.467615 114.787 -135.7651
1592.927581 114.874 -135.4955
1604.470591 114.966 -135.2316
1616.097246 115.063 -134.9774
1627.808153 115.164 -134.7367
1639.603922 115.270 -134.5129
1651.485168 115.379 -134.3092
1663.452510 115.492 -134.1284
1675.506573 115.609 -133.9729
1687.647984 115.728 -133.8447
1699.877377 115.849 -133.7454
1712.195390 115.973 -133.6760
1724.602663 116.099 -133.6374
1737.099845 116.225 -133.6298
1749.687587 116.353 -133.6536
1762.366544 116.481 -133.7084
1775.137379 116.610 -133.7939
1788.000756 116.739 -133.9096
1800.957346 116.868 -134.0549
1814.007826 116.997 -134.2289
1827.152874 117.125 -134.4310
1840.393177 117.253 -134.6604
1853.729425 117.381 -134.9164
1867.162312 117.507 -135.1981
1880.692540 117.633 -135.5051
1894.320813 117.759 -135.8369
1908.047843 117.883 -136.1930
1921.874344 118.007 -136.5732
1935.801038 118.130 -136.9773
1949.828650 118.252 -137.4053
1963.957912 118.374 -137.8573
1978.189561 118.494 -138.3336
1992.524338 118.614 -138.8347
2006.962991 118.732 -139.3610
2021.506272 118.850 -139.9133
2036.154940 118.966 -140.4923
2050.909758 119.081 -141.0988
2065.771495 119.194 -141.7339
2080.740927 119.305 -142.3983
2095.818833 119.414 -143.0928
2111.006001 119.521 -143.8183
2126.303220 119.624 -144.5752
2141.711290 119.724 -145.3639
2157.231013 119.820 -146.1845
2172.863198 119.912 -147.0366
2188.608660 119.998 -147.9196
2204.468221 120.079 -148.8326
2220.442706 120.154 -149.7740
2236.532950 120.222 -150.7420
2252.739789 120.283 -151.7342
2269.064070 120.336 -152.7479
2285.506644 120.381 -153.7798
2302.068367 120.418 -154.8260
2318.750104 120.445 -155.8827
2335.552723 120.462 -156.9451
2352.477101 120.470 -158.0084
2369.524119 120.468 -159.0673
2386.694668 120.457 -160.1165
2403.989641 120.435 -161.1503
2421.409941 120.404 -162.1632
2438.956476 120.363 -163.1499
2456.630160 120.313 -164.1052
2474.431915 120.255 -165.0245
2492.362668 120.189 -165.9034
2510.423356 120.116 -166.7385
2528.614918 120.037 -167.5266
2546.938304 119.952 -168.2653
2565.394469 119.863 -168.9527
2583.984375 119.770 -169.5874
2602.708991 119.673 -170.1684
2621.569293 119.575 -170.6953
2640.566265 119.475 -171.1679
2659.700897 119.374 -171.5867
2678.974186 119.274 -171.9525
2698.387137 119.175 -172.2669
2717.940763 119.078 -172.5318
2737.636082 118.983 -172.7498
2757.474121 118.892 -172.9243
2777.455915 118.805 -173.0593
2797.582506 118.722 -173.1591
2817.854942 118.645 -173.2288
2838.274281 118.573 -173.2735
2858.841586 118.507 -173.2985
2879.557931 118.446 -173.3091
2900.424394 118.392 -173.3103
2921.442065 118.343 -173.3069
2942.612039 118.299 -173.3032
2963.935418 118.260 -173.3029
2985.413316 118.226 -173.3094
3007.046852 118.196 -173.3253
3028.837153 118.170 -173.3530
3050.785356 118.147 -173.3942
3072.892604 118.127 -173.4502
3095.160050 118.110 -173.5217
3117.588856 118.093 -173.6092
3140.180190 118.079 -173.7128
3162.935230 118.065 -173.8322
3185.855163 118.051 -173.9667
3208.941182 118.037 -174.1156
3232.194493 118.023 -174.2777
3255.616307 118.008 -174.4517
3279.207844 117.991 -174.6360
3302.970336 117.974 -174.8289
3326.905021 117.954 -175.0284
3351.013146 117.932 -175.2322
3375.295969 117.908 -175.4381
3399.754755 117.882 -175.6432
3424.390779 117.853 -175.8447
3449.205326 117.821 -176.0394
3474.199690 117.787 -176.2239
3499.375173 117.750 -176.3948
3524.733088 117.710 -176.5485
3550.274757 117.668 -176.6815
3576.001511 117.625 -176.7905
3601.914692 117.580 -176.8727
3628.015651 117.534 -176.9258
3654.305748 117.488 -176.9484
3680.786354 117.443 -176.9398
3707.458849 117.400 -176.9007
3734.324624 117.359 -176.8328
3761.385080 117.321 -176.7388
3788.641627 117.287 -176.6224
3816.095686 117.257 -176.4883
3843.748688 117.233 -176.3416
3871.602076 117.213 -176.1877
3899.657300 117.199 -176.0322
3927.915825 117.191 -175.8806
3956.379122 117.188 -175.7382
3985.048676 117.190 -175.6099
4013.925981 117.197 -175.5001
4043.012544 117.208 -175.4129
4072.309879 117.223 -175.3516
4101.819515 117.242 -175.3190
4131.542990 117.264 -175.3175
4161.481854 117.288 -175.3489
4191.637667 117.314 -175.4146
4222.012001 117.341 -175.5155
4252.606441 117.368 -175.6519
4283.422580 117.395 -175.8239
4314.462026 117.421 -176.0312
4345.726396 117.446 -176.2731
4377.217321 117.470 -176.5485
4408.936442 117.490 -176.8557
4440.885413 117.508 -177.1932
4473.065899 117.522 -177.5585
4505.479579 117.532 -177.9493
4538.128141 117.537 -178.3627
4571.013288 117.538 -178.7957
4604.136735 117.534 -179.2448
4637.500207 117.524 -179.7069
4671.105446 117.510 179.8215
4704.954201 117.490 179.3437
4739.048239 117.465 178.8627
4773.389336 117.434 178.3810
4807.979283 117.399 177.9010
4842.819883 117.359 177.4244
4877.912952 117.314 176.9528
4913.260320 117.265 176.4871
4948.863830 117.211 176.0286
4984.725337 117.152 175.5784
5020.846712 117.088 175.1385
5057.229836 117.019 174.7111
5093.876609 116.944 174.2996
5130.788938 116.863 173.9082
5167.968750 116.775 173.5425
5205.417982 116.681 173.2092
5243.138586 116.579 172.9157
5281.132530 116.470 172.6708
5319.401793 116.354 172.4836
5357.948371 116.230 172.3636
5396.774274 116.101 172.3201
5435.881525 115.966 172.3616
5475.272163 115.827 172.4953
5514.948243 115.685 172.7266
5554.911831 115.543 173.0584
5595.165012 115.401 173.4910
5635.709884 115.262 174.0219
5676.548561 115.127 174.6458
5717.683172 115.000 175.3551
5759.115861 114.881 176.1403
5800.848789 114.772 176.9903
5842.884130 114.674 177.8932
5885.224077 114.589 178.8368
5927.870837 114.517 179.8095
5970.826633 114.459 -179.1997
6014.093704 114.415 -178.2005
6057.674306 114.386 -177.2014
6101.570711 114.372 -176.2092
6145.785208 114.372 -175.2294
6190.320101 114.387 -174.2663
6235.177712 114.417 -173.3229
6280.360380 114.461 -172.4017
6325.870460 114.520 -171.5043
6371.710325 114.595 -170.6324
6417.882365 114.684 -169.7874
6464.388986 114.788 -168.9709
6511.232613 114.907 -168.1850
6558.415689 115.042 -167.4323
6605.940673 115.192 -166.7162
6653.810042 115.357 -166.0412
6702.026292 115.537 -165.4124
6750.591937 115.732 -164.8363
6799.509509 115.941 -164.3200
6848.781558 116.164 -163.8717
6898.410653 116.399 -163.5001
6948.399380 116.644 -163.2143
6998.750346 116.900 -163.0236
7049.466176 117.164 -162.9369
7100.549514 117.434 -162.9630
7152.003023 117.708 -163.1098
7203.829385 117.984 -163.3844
7256.031302 118.261 -163.7927
7308.611496 118.536 -164.3398
7361.572708 118.806 -165.0292
7414.917698 119.070 -165.8634
7468.649249 119.325 -166.8434
7522.770160 119.569 -167.9691
7577.283253 119.800 -169.2387
7632.191371 120.016 -170.6492
7687.497376 120.214 -172.1960
7743.204151 120.393 -173.8729
7799.314600 120.551 -175.6720
7855.831649 120.685 -177.5836
7912.758244 120.794 -179.5963
7970.097352 120.877 178.3030
8027.851962 120.932 176.1288
8086.025087 120.959 173.8970
8144.619758 120.957 171.6239
8203.639030 120.925 169.3265
8263.085980 120.865 167.0215
8322.963708 120.775 164.7257
8383.275334 120.657 162.4547
8444.024002 120.511 160.2238
8505.212881 120.338 158.0471
8566.845160 120.139 155.9376
8628.924051 119.915 153.9077
8691.452792 119.666 151.9685
8754.434642 119.395 150.1306
8817.872884 119.103 148.4041
8881.770826 118.790 146.7983
8946.131799 118.457 145.3227
9010.959157 118.106 143.9865
9076.256282 117.738 142.7991
9142.026576 117.353 141.7701
9208.273470 116.954 140.9096
9275.000415 116.541 140.2280
9342.210891 116.115 139.7363
9409.908403 115.678 139.4464
9478.096478 115.230 139.3708
9546.778672 114.774 139.5231
9615.958566 114.310 139.9179
9685.639765 113.841 140.5709
9755.825904 113.367 141.4993
9826.520640 112.892 142.7212
9897.727659 112.418 144.2556
9969.450674 111.947 146.1215
10041.693423 111.482 148.3369
10114.459673 111.027 150.9167
10187.753217 110.586 153.8699
10261.577877 110.163 157.1963
10335.937500 109.764 160.8818
10410.835964 109.393 164.8945
10486.277173 109.055 169.1816
10562.265060 108.757 173.6692
10638.803587 108.502 178.2647
10715.896743 108.295 -177.1353
10793.548548 108.139 -172.6353
10871.763050 108.035 -168.3311
10950.544327 107.983 -164.3010
11029.896485 107.981 -160.6016
11109.823662 108.025 -157.2681
11190.330024 108.111 -154.3154
11271.419768 108.234 -151.7434
11353.097122 108.388 -149.5409
11435.366344 108.566 -147.6895
11518.231722 108.764 -146.1670
11601.697577 108.976 -144.9492
11685.768261 109.196 -144.0119
11770.448155 109.421 -143.3312
11855.741674 109.647 -142.8845
11941.653265 109.871 -142.6506
12028.187408 110.090 -142.6094
12115.348612 110.301 -142.7422
12203.141422 110.503 -143.0313
12291.570415 110.694 -143.4603
12380.640201 110.873 -144.0137
12470.355424 111.039 -144.6766
12560.720760 111.191 -145.4355
12651.740920 111.330 -146.2775
12743.420650 111.455 -147.1908
12835.764729 111.567 -148.1645
12928.777972 111.665 -149.1891
13022.465227 111.751 -150.2561
13116.831378 111.825 -151.3583
13211.881345 111.887 -152.4900
13307.620084 111.939 -153.6466
13404.052584 111.982 -154.8248
13501.183875 112.015 -156.0226
13599.019019 112.041 -157.2390
13697.563116 112.059 -158.4739
13796.821305 112.069 -159.7278
13896.798760 112.074 -161.0020
13997.500692 112.072 -162.2981
14098.932352 112.063 -163.6178
14201.099028 112.048 -164.9628
14304.006046 112.027 -166.3348
14407.658770 111.998 -167.7352
14512.062604 111.963 -169.1652
14617.222992 111.920 -170.6253
14723.145416 111.868 -172.1159
14829.835397 111.808 -173.6365
14937.298497 111.738 -175.1864
15045.540320 111.658 -176.7640
15154.566507 111.567 -178.3673
15264.382743 111.464 -179.9936
15374.994752 111.349 178.3607
15486.408302 111.221 176.6996
15598.629201 111.079 175.0282
15711.663298 110.922 173.3523
15825.516487 110.750 171.6786
15940.194703 110.562 170.0146
16055.703925 110.357 168.3687
16172.050174 110.135 166.7505
16289.239516 109.896 165.1702
16407.278061 109.638 163.6392
16526.171961 109.363 162.1698
16645.927415 109.069 160.7754
16766.550667 108.756 159.4699
16888.048005 108.426 158.2686
17010.425762 108.077 157.1873
17133.690320 107.711 156.2425
17257.848103 107.328 155.4515
17382.905584 106.929 154.8322
17508.869284 106.515 154.4030
17635.745768 106.086 154.1824
17763.541652 105.645 154.1893
17892.263597 105.193 154.4417
18021.918315 104.732 154.9566
18152.512564 104.264 155.7480
18284.053153 103.792 156.8251
18416.546939 103.319 158.1898
18550.000830 102.850 159.8327
18684.421783 102.388 161.7297
18819.816805 101.939 163.8380
18956.192956 101.510 166.0941
19093.557344 101.107 168.4135
19231.917131 100.739 170.6950
19371.279531 100.413 172.8274
19511.651807 100.139 174.6992
19653.041280 99.925 176.2092
19795.455318 99.778 177.2743
19938.901348 99.703 177.8367
