* Measurement data measured by REW V5.20.9
* Source: Input device not selected, no input selected, L, volume: no control. Timing signal peak level -10,8 dBFS, measurement signal peak level -10,8 dBFS
* Format: 256k Log Swept Sine, 1 sweep at -12,0 dBFS using an acoustic timing reference
* Dated: 01.01.2024 21:09:35
* REW Settings:
*  C-weighting compensation: Off
*  Target level: 75.0 dB
* Note: Delay -0,0190 ms (-6,5 mm, -0,26 in) using estimated IR delay relative to Acoustic reference on  R with no timing offset
* Measurement: ARTTI T10
* Smoothing: 1/48 octave
* Frequency Step: 96 ppo
* Start Frequency: 20.187378 Hz
*
* Freq(Hz) SPL(dB) Phase(degrees)
20.187378 116.500 -135.4872
20.333664 116.521 -135.8763
20.481010 116.546 -136.2713
20.629424 116.571 -136.6771
20.778913 116.596 -137.0932
20.929486 116.619 -137.5210
21.081150 116.640 -137.9613
21.233912 116.660 -138.4104
21.387782 116.678 -138.8693
21.542767 116.697 -139.3330
21.698874 116.715 -139.7995
21.856113 116.734 -140.2669
22.014492 116.755 -140.7311
22.174018 116.777 -141.1930
22.334700 116.801 -141.6507
22.496546 116.829 -142.1054
22.659566 116.858 -142.5595
22.823766 116.890 -143.0132
22.989157 116.924 -143.4711
23.155745 116.959 -143.9328
23.323542 116.993 -144.4005
23.492554 117.025 -144.8736
23.662790 117.054 -145.3488
23.834261 117.080 -145.8253
24.006973 117.101 -146.2943
24.180938 117.116 -146.7548
24.356163 117.126 -147.1960
24.532658 117.130 -147.6172
24.710431 117.131 -148.0100
24.889493 117.128 -148.3760
25.069853 117.124 -148.7121
25.251519 117.120 -149.0245
25.434502 117.118 -149.3149
25.618811 117.118 -149.5964
25.804456 117.123 -149.8723
25.991445 117.133 -150.1603
26.179790 117.147 -150.4632
26.369500 117.165 -150.7961
26.560584 117.187 -151.1597
26.753053 117.210 -151.5610
26.946917 117.234 -151.9947
27.142185 117.256 -152.4609
27.338869 117.276 -152.9450
27.536977 117.293 -153.4436
27.736522 117.305 -153.9374
27.937512 117.314 -154.4205
28.139959 117.319 -154.8806
28.343872 117.322 -155.3132
28.549264 117.325 -155.7160
28.756143 117.328 -156.0936
28.964522 117.333 -156.4532
29.174411 117.340 -156.8026
29.385821 117.349 -157.1555
29.598763 117.359 -157.5160
29.813248 117.369 -157.8919
30.029287 117.378 -158.2805
30.246891 117.386 -158.6809
30.466073 117.392 -159.0851
30.686842 117.396 -159.4882
30.909212 117.400 -159.8862
31.133193 117.403 -160.2771
31.358797 117.407 -160.6637
31.586035 117.412 -161.0485
31.814921 117.417 -161.4376
32.045465 117.423 -161.8328
32.277680 117.427 -162.2358
32.511577 117.429 -162.6451
32.747169 117.429 -163.0577
32.984469 117.427 -163.4714
33.223488 117.422 -163.8831
33.464239 117.415 -164.2910
33.706735 117.406 -164.6927
33.950987 117.395 -165.0856
34.197010 117.382 -165.4639
34.444816 117.370 -165.8231
34.694417 117.359 -166.1617
34.945827 117.350 -166.4801
35.199059 117.346 -166.7899
35.454126 117.346 -167.1059
35.711041 117.350 -167.4412
35.969818 117.355 -167.8076
36.230470 117.357 -168.2050
36.493011 117.355 -168.6181
36.757455 117.347 -169.0286
37.023814 117.335 -169.4174
37.292104 117.322 -169.7711
37.562338 117.312 -170.0965
37.834530 117.307 -170.4131
38.108695 117.307 -170.7410
38.384846 117.309 -171.0945
38.662999 117.311 -171.4731
38.943167 117.309 -171.8536
39.225365 117.304 -172.2090
39.509608 117.298 -172.5256
39.795911 117.295 -172.8099
40.084289 117.296 -173.0894
40.374756 117.299 -173.4044
40.667328 117.299 -173.7849
40.962020 117.291 -174.2251
41.258848 117.271 -174.6866
41.557827 117.240 -175.1189
41.858972 117.207 -175.4844
42.162299 117.178 -175.7787
42.467824 117.162 -176.0357
42.775564 117.159 -176.3106
43.085533 117.163 -176.6451
43.397749 117.164 -177.0390
43.712227 117.156 -177.4472
44.028983 117.137 -177.8105
44.348036 117.113 -178.0946
44.669400 117.091 -178.3143
44.993093 117.075 -178.5250
45.319131 117.063 -178.7883
45.647532 117.050 -179.1314
45.978313 117.031 -179.5307
46.311491 117.003 -179.9297
46.647083 116.972 179.7215
46.985107 116.946 179.4314
47.325581 116.929 179.1619
47.668521 116.918 178.8591
48.013947 116.905 178.4958
48.361876 116.883 178.0945
48.712326 116.849 177.7131
49.065315 116.809 177.4051
49.420863 116.772 177.1813
49.778987 116.747 177.0015
50.139706 116.735 176.8016
50.503039 116.731 176.5361
50.869005 116.728 176.2032
51.237623 116.718 175.8399
51.608912 116.700 175.4937
51.982891 116.676 175.1937
52.359580 116.650 174.9392
52.739000 116.626 174.7076
53.121168 116.604 174.4704
53.506106 116.585 174.2053
53.893833 116.567 173.9019
54.284370 116.549 173.5637
54.677737 116.527 173.2100
55.073955 116.500 172.8740
55.473043 116.469 172.5882
55.875024 116.439 172.3637
56.279917 116.413 172.1783
56.687745 116.393 171.9839
57.098527 116.376 171.7357
57.512287 116.356 171.4257
57.929045 116.329 171.0894
58.348822 116.296 170.7793
58.771642 116.260 170.5309
59.197525 116.228 170.3355
59.626495 116.201 170.1514
60.058573 116.177 169.9380
60.493782 116.152 169.6831
60.932145 116.124 169.4082
61.373685 116.092 169.1437
61.818424 116.060 168.9059
62.266386 116.032 168.6851
62.717593 116.007 168.4586
63.172071 115.983 168.2101
63.629842 115.956 167.9445
64.090930 115.924 167.6836
64.555359 115.890 167.4496
65.023154 115.857 167.2466
65.494339 115.827 167.0585
65.968938 115.801 166.8607
66.446976 115.776 166.6415
66.928478 115.748 166.4079
67.413469 115.715 166.1769
67.901975 115.679 165.9608
68.394021 115.641 165.7601
68.889632 115.605 165.5666
69.388835 115.571 165.3679
69.891655 115.540 165.1561
70.398118 115.512 164.9321
70.908252 115.484 164.7067
71.422083 115.454 164.4938
71.939636 115.424 164.2983
72.460941 115.392 164.1120
72.986023 115.358 163.9240
73.514909 115.322 163.7330
74.047629 115.284 163.5482
74.584208 115.246 163.3770
75.124676 115.210 163.2132
75.669061 115.175 163.0428
76.217390 115.141 162.8582
76.769692 115.105 162.6666
77.325997 115.068 162.4851
77.886333 115.029 162.3282
78.450730 114.990 162.1970
79.019216 114.954 162.0787
79.591822 114.919 161.9523
80.168577 114.886 161.8036
80.749512 114.853 161.6321
81.334656 114.820 161.4492
81.924040 114.785 161.2678
82.517696 114.749 161.0964
83.115653 114.712 160.9393
83.717943 114.672 160.7999
84.324598 114.629 160.6826
84.935649 114.585 160.5898
85.551128 114.542 160.5185
86.171066 114.506 160.4579
86.795497 114.478 160.3885
87.424453 114.456 160.2819
88.057967 114.436 160.1169
88.696071 114.408 159.9070
89.338800 114.369 159.7004
89.986185 114.324 159.5374
90.638262 114.277 159.4146
91.295065 114.230 159.3076
91.956626 114.184 159.2100
92.622982 114.141 159.1267
93.294166 114.101 159.0500
93.970214 114.065 158.9724
94.651161 114.031 158.8892
95.337042 113.999 158.7735
96.027894 113.963 158.6085
96.723752 113.919 158.4477
97.424652 113.874 158.3492
98.130631 113.832 158.2729
98.841726 113.789 158.1556
99.557974 113.745 158.0219
100.279412 113.703 157.9230
101.006078 113.668 157.8789
101.738010 113.639 157.9049
102.475245 113.611 157.9569
103.217823 113.578 157.9218
103.965782 113.534 157.7946
104.719161 113.486 157.6958
105.477999 113.441 157.6484
106.242336 113.397 157.5596
107.012212 113.345 157.4438
107.787666 113.292 157.4145
108.568740 113.254 157.4719
109.355474 113.225 157.5162
110.147909 113.190 157.5101
110.946086 113.144 157.4315
111.750047 113.097 157.2620
112.559834 113.058 157.1284
113.375489 113.027 157.1724
114.197055 112.996 157.3219
115.024574 112.954 157.4356
115.858089 112.903 157.4890
116.697645 112.853 157.5211
117.543284 112.806 157.5302
118.395051 112.763 157.4888
119.252990 112.726 157.4389
120.117147 112.699 157.4279
120.987565 112.666 157.4660
121.864291 112.619 157.5670
122.747370 112.568 157.6098
123.636848 112.523 157.5339
124.532771 112.486 157.5757
125.435187 112.455 157.7747
126.344142 112.426 157.8640
127.259684 112.397 157.8537
128.181860 112.370 157.9716
129.110718 112.341 158.1960
130.046308 112.303 158.3042
130.988677 112.264 158.2090
131.937875 112.235 158.0728
132.893951 112.212 158.0312
133.856956 112.185 158.0094
134.826938 112.158 158.0516
135.803950 112.146 158.1917
136.788041 112.137 158.2946
137.779264 112.110 158.3411
138.777669 112.072 158.3350
139.783309 112.038 158.2751
140.796237 112.013 158.1920
141.816504 111.991 158.1704
142.844165 111.963 158.2609
143.879273 111.928 158.3541
144.921881 111.890 158.3666
145.972045 111.858 158.3351
147.029819 111.829 158.3616
148.095257 111.793 158.4992
149.168417 111.750 158.6606
150.249353 111.712 158.7403
151.338121 111.683 158.8036
152.434780 111.656 158.9043
153.539385 111.629 159.0042
154.651995 111.603 159.1204
155.772667 111.582 159.2432
156.901460 111.567 159.3328
158.038432 111.556 159.4083
159.183644 111.545 159.4814
160.337154 111.532 159.5333
161.499023 111.514 159.5712
162.669312 111.494 159.6108
163.848081 111.476 159.6137
165.035392 111.463 159.5744
166.231306 111.451 159.5919
167.435887 111.438 159.6426
168.649196 111.423 159.5969
169.871298 111.402 159.5277
171.102255 111.377 159.5057
172.342133 111.347 159.4818
173.590995 111.318 159.4296
174.848907 111.290 159.3876
176.115934 111.264 159.3417
177.392143 111.236 159.2806
178.677599 111.205 159.2577
179.972371 111.171 159.2711
181.276525 111.135 159.2499
182.590129 111.097 159.2163
183.913252 111.061 159.2224
185.245964 111.027 159.2370
186.588332 110.992 159.2405
187.940428 110.956 159.2451
189.302322 110.918 159.2809
190.674085 110.880 159.3212
192.055788 110.841 159.3571
193.447503 110.802 159.4059
194.849303 110.764 159.4620
196.261262 110.726 159.5065
197.683452 110.689 159.5739
199.115948 110.652 159.6680
200.558824 110.616 159.7571
202.012156 110.579 159.8404
203.476019 110.543 159.9198
204.950490 110.508 160.0054
206.435646 110.472 160.1021
207.931564 110.435 160.2033
209.438322 110.402 160.3127
210.955998 110.374 160.3971
212.484672 110.348 160.4620
214.024424 110.312 160.6019
215.575333 110.270 160.7844
217.137481 110.231 160.9315
218.710948 110.197 161.0738
220.295818 110.165 161.2103
221.892172 110.135 161.3640
223.500094 110.105 161.5274
225.119668 110.075 161.6811
226.750978 110.046 161.8426
228.394109 110.020 162.0109
230.049147 109.997 162.1760
231.716178 109.976 162.3411
233.395289 109.953 162.4929
235.086567 109.930 162.6375
236.790102 109.908 162.7875
238.505980 109.887 162.9352
240.234293 109.867 163.0706
241.975130 109.848 163.1932
243.728581 109.829 163.3083
245.494739 109.811 163.4221
247.273695 109.793 163.5195
249.065542 109.775 163.5869
250.870374 109.754 163.6926
252.688284 109.731 163.8166
254.519367 109.708 163.9153
256.363720 109.685 164.0068
258.221437 109.662 164.0999
260.092616 109.637 164.2050
261.977354 109.611 164.3084
263.875750 109.583 164.4082
265.787903 109.555 164.5157
267.713911 109.527 164.6436
269.653877 109.499 164.7787
271.607900 109.473 164.8989
273.576083 109.446 165.0253
275.558528 109.420 165.1597
277.555338 109.392 165.2899
279.566619 109.365 165.4202
281.592474 109.338 165.5514
283.633009 109.312 165.6968
285.688331 109.286 165.8554
287.758546 109.260 166.0114
289.843763 109.235 166.1589
291.944090 109.210 166.3051
294.059638 109.186 166.4732
296.190515 109.161 166.6382
298.336833 109.136 166.7977
300.498705 109.110 166.9626
302.676243 109.086 167.1197
304.869559 109.062 167.2799
307.078770 109.040 167.4521
309.303989 109.018 167.6278
311.545334 108.992 167.8097
313.802919 108.966 167.9919
316.076865 108.943 168.1697
318.367288 108.922 168.3556
320.674309 108.900 168.5497
322.998047 108.877 168.7343
325.338624 108.854 168.9082
327.696162 108.831 169.0854
330.070783 108.809 169.2736
332.462612 108.788 169.4631
334.871773 108.767 169.6557
337.298392 108.747 169.8537
339.742595 108.726 170.0449
342.204510 108.706 170.2358
344.684265 108.686 170.4399
347.181989 108.666 170.6550
349.697813 108.646 170.8665
352.231868 108.627 171.0547
354.784285 108.609 171.2479
357.355198 108.591 171.4465
359.944741 108.573 171.6464
362.553049 108.555 171.8481
365.180258 108.535 172.0501
367.826505 108.516 172.2550
370.491927 108.497 172.4678
373.176665 108.480 172.6798
375.880856 108.463 172.8935
378.604644 108.447 173.1189
381.348169 108.431 173.3339
384.111575 108.415 173.5391
386.895006 108.400 173.7536
389.698607 108.384 173.9721
392.522524 108.369 174.2001
395.366904 108.353 174.4304
398.231895 108.338 174.6508
401.117648 108.323 174.8694
404.024312 108.308 175.0928
406.952038 108.293 175.3212
409.900981 108.278 175.5479
412.871292 108.265 175.7729
415.863128 108.252 176.0024
418.876643 108.239 176.2297
421.911996 108.225 176.4585
424.969344 108.212 176.6871
428.048847 108.198 176.9231
431.150666 108.186 177.1662
434.274961 108.173 177.4073
437.421897 108.160 177.6484
440.591636 108.148 177.8907
443.784345 108.136 178.1313
447.000189 108.125 178.3837
450.239337 108.115 178.6355
453.501956 108.104 178.8619
456.788219 108.093 179.1019
460.098294 108.083 179.3513
463.432356 108.073 179.6027
466.790578 108.063 179.8555
470.173135 108.053 -179.8914
473.580203 108.043 -179.6425
477.011961 108.033 -179.3977
480.468586 108.024 -179.1449
483.950259 108.015 -178.8889
487.457163 108.007 -178.6333
490.989478 107.998 -178.3727
494.547390 107.990 -178.1084
498.131084 107.982 -177.8480
501.740748 107.976 -177.5859
505.376568 107.969 -177.3144
509.038735 107.962 -177.0428
512.727439 107.955 -176.7810
516.442874 107.949 -176.5177
520.185232 107.943 -176.2454
523.954708 107.936 -175.9725
527.751500 107.930 -175.7078
531.575805 107.925 -175.4414
535.427822 107.920 -175.1590
539.307753 107.915 -174.8755
543.215800 107.910 -174.5956
547.152165 107.905 -174.3334
551.117055 107.900 -174.0595
555.110677 107.897 -173.7708
559.133237 107.894 -173.4891
563.184947 107.891 -173.1964
567.266018 107.889 -172.8953
571.376661 107.886 -172.5971
575.517092 107.884 -172.3044
579.687526 107.882 -172.0170
583.888181 107.881 -171.7210
588.119275 107.880 -171.4180
592.381030 107.880 -171.1181
596.673667 107.879 -170.8150
600.997410 107.879 -170.5157
605.352485 107.879 -170.2140
609.739119 107.880 -169.9006
614.157540 107.881 -169.5844
618.607979 107.883 -169.2646
623.090667 107.884 -168.9460
627.605839 107.886 -168.6388
632.153730 107.889 -168.3355
636.734576 107.892 -168.0196
641.348617 107.895 -167.6996
645.996094 107.898 -167.3758
650.677248 107.902 -167.0428
655.392323 107.906 -166.7127
660.141566 107.911 -166.3875
664.925224 107.917 -166.0604
669.743546 107.924 -165.7230
674.596784 107.930 -165.3816
679.485191 107.937 -165.0401
684.409020 107.944 -164.6955
689.368530 107.952 -164.3566
694.363979 107.960 -164.0190
699.395626 107.969 -163.6705
704.463736 107.979 -163.3162
709.568570 107.990 -162.9567
714.710396 108.001 -162.5953
719.889483 108.012 -162.2383
725.106099 108.024 -161.8805
730.360516 108.037 -161.5275
735.653010 108.051 -161.1605
740.983855 108.065 -160.7845
746.353329 108.080 -160.4124
751.761713 108.096 -160.0402
757.209288 108.113 -159.6658
762.696339 108.131 -159.2850
768.223151 108.149 -158.9026
773.790013 108.169 -158.5223
779.397214 108.189 -158.1393
785.045047 108.210 -157.7528
790.733808 108.232 -157.3694
796.463791 108.255 -156.9809
802.235296 108.278 -156.5856
808.048623 108.303 -156.1890
813.904077 108.329 -155.7998
819.801961 108.357 -155.4061
825.742584 108.386 -155.0053
831.726255 108.415 -154.6047
837.753287 108.447 -154.2081
843.823992 108.479 -153.8115
849.938689 108.513 -153.4112
856.097695 108.547 -153.0076
862.301332 108.583 -152.6006
868.549922 108.620 -152.2035
874.843793 108.658 -151.8073
881.183272 108.698 -151.4078
887.568689 108.740 -151.0122
894.000378 108.783 -150.6169
900.478673 108.827 -150.2265
907.003913 108.873 -149.8375
913.576437 108.919 -149.4530
920.196588 108.968 -149.0702
926.864712 109.018 -148.6919
933.581156 109.069 -148.3159
940.346270 109.122 -147.9410
947.160407 109.177 -147.5780
954.023921 109.233 -147.2241
960.937172 109.289 -146.8708
967.900519 109.347 -146.5226
974.914325 109.406 -146.1805
981.978956 109.466 -145.8491
989.094780 109.529 -145.5268
996.262169 109.592 -145.2113
1003.481495 109.655 -144.9013
1010.753136 109.720 -144.5999
1018.077470 109.786 -144.3068
1025.454879 109.853 -144.0238
1032.885748 109.920 -143.7536
1040.370463 109.988 -143.4972
1047.909417 110.057 -143.2504
1055.503000 110.127 -143.0025
1063.151610 110.196 -142.7610
1070.855645 110.265 -142.5303
1078.615506 110.335 -142.3083
1086.431599 110.406 -142.0975
1094.304330 110.477 -141.9014
1102.234110 110.548 -141.7185
1110.221353 110.619 -141.5383
1118.266475 110.690 -141.3629
1126.369895 110.762 -141.1941
1134.532035 110.833 -141.0335
1142.753322 110.903 -140.8882
1151.034184 110.974 -140.7538
1159.375052 111.044 -140.6129
1167.776361 111.114 -140.4792
1176.238550 111.184 -140.3523
1184.762060 111.254 -140.2260
1193.347334 111.324 -140.1064
1201.994821 111.393 -139.9982
1210.704971 111.462 -139.8951
1219.478238 111.531 -139.7928
1228.315080 111.600 -139.6951
1237.215957 111.669 -139.5986
1246.181334 111.738 -139.5041
1255.211678 111.807 -139.4090
1264.307459 111.875 -139.3139
1273.469152 111.944 -139.2279
1282.697235 112.012 -139.1443
1291.992188 112.081 -139.0592
1301.354495 112.149 -138.9759
1310.784647 112.218 -138.8976
1320.283132 112.287 -138.8196
1329.850448 112.357 -138.7430
1339.487093 112.427 -138.6700
1349.193569 112.498 -138.6017
1358.970381 112.569 -138.5253
1368.818041 112.640 -138.4512
1378.737061 112.712 -138.3833
1388.727958 112.784 -138.3152
1398.791253 112.858 -138.2507
1408.927471 112.931 -138.1908
1419.137140 113.007 -138.1315
1429.420793 113.082 -138.0744
1439.778965 113.159 -138.0184
1450.212197 113.237 -137.9676
1460.721033 113.315 -137.9301
1471.306019 113.395 -137.8932
1481.967709 113.475 -137.8587
1492.706658 113.557 -137.8312
1503.523426 113.640 -137.8082
1514.418576 113.724 -137.7937
1525.392678 113.809 -137.7875
1536.446302 113.895 -137.7870
1547.580025 113.982 -137.7914
1558.794428 114.071 -137.8032
1570.090095 114.161 -137.8292
1581.467615 114.252 -137.8663
1592.927581 114.343 -137.9159
1604.470591 114.437 -137.9756
1616.097246 114.531 -138.0427
1627.808153 114.627 -138.1211
1639.603922 114.724 -138.2142
1651.485168 114.822 -138.3234
1663.452510 114.921 -138.4545
1675.506573 115.021 -138.6028
1687.647984 115.121 -138.7641
1699.877377 115.222 -138.9402
1712.195390 115.324 -139.1384
1724.602663 115.426 -139.3563
1737.099845 115.529 -139.5926
1749.687587 115.632 -139.8476
1762.366544 115.735 -140.1283
1775.137379 115.838 -140.4336
1788.000756 115.941 -140.7606
1800.957346 116.043 -141.1083
1814.007826 116.145 -141.4766
1827.152874 116.246 -141.8668
1840.393177 116.346 -142.2812
1853.729425 116.445 -142.7198
1867.162312 116.542 -143.1829
1880.692540 116.638 -143.6662
1894.320813 116.732 -144.1712
1908.047843 116.825 -144.7003
1921.874344 116.916 -145.2533
1935.801038 117.004 -145.8279
1949.828650 117.091 -146.4224
1963.957912 117.174 -147.0362
1978.189561 117.255 -147.6707
1992.524338 117.334 -148.3255
2006.962991 117.410 -148.9966
2021.506272 117.483 -149.6857
2036.154940 117.552 -150.3927
2050.909758 117.619 -151.1171
2065.771495 117.683 -151.8592
2080.740927 117.744 -152.6178
2095.818833 117.802 -153.3904
2111.006001 117.856 -154.1787
2126.303220 117.907 -154.9845
2141.711290 117.955 -155.8054
2157.231013 118.000 -156.6428
2172.863198 118.041 -157.5006
2188.608660 118.080 -158.3793
2204.468221 118.114 -159.2802
2220.442706 118.145 -160.2090
2236.532950 118.172 -161.1705
2252.739789 118.193 -162.1711
2269.064070 118.207 -163.2199
2285.506644 118.211 -164.3262
2302.068367 118.203 -165.4947
2318.750104 118.176 -166.7225
2335.552723 118.124 -167.9886
2352.477101 118.041 -169.2391
2369.524119 117.925 -170.3814
2386.694668 117.782 -171.2957
2403.989641 117.626 -171.8859
2421.409941 117.479 -172.1392
2438.956476 117.359 -172.1345
2456.630160 117.275 -172.0046
2474.431915 117.228 -171.8669
2492.362668 117.214 -171.7920
2510.423356 117.226 -171.8232
2528.614918 117.257 -171.9958
2546.938304 117.303 -172.3436
2565.394469 117.355 -172.8949
2583.984375 117.406 -173.6688
2602.708991 117.444 -174.6746
2621.569293 117.461 -175.9160
2640.566265 117.442 -177.3819
2659.700897 117.373 -179.0173
2678.974186 117.239 179.2905
2698.387137 117.037 177.7301
2717.940763 116.772 176.5307
2737.636082 116.470 175.8738
2757.474121 116.164 175.8075
2777.455915 115.884 176.2361
2797.582506 115.652 176.9806
2817.854942 115.473 177.8687
2838.274281 115.343 178.7759
2858.841586 115.252 179.6222
2879.557931 115.190 -179.6333
2900.424394 115.149 -178.9987
2921.442065 115.121 -178.4718
2942.612039 115.101 -178.0432
2963.935418 115.084 -177.7010
2985.413316 115.069 -177.4267
3007.046852 115.052 -177.2020
3028.837153 115.034 -177.0145
3050.785356 115.015 -176.8528
3072.892604 114.994 -176.7074
3095.160050 114.971 -176.5752
3117.588856 114.947 -176.4515
3140.180190 114.922 -176.3326
3162.935230 114.896 -176.2182
3185.855163 114.868 -176.1076
3208.941182 114.840 -175.9969
3232.194493 114.809 -175.8780
3255.616307 114.778 -175.7446
3279.207844 114.747 -175.5918
3302.970336 114.717 -175.4214
3326.905021 114.689 -175.2428
3351.013146 114.661 -175.0576
3375.295969 114.634 -174.8614
3399.754755 114.609 -174.6520
3424.390779 114.585 -174.4313
3449.205326 114.563 -174.1969
3474.199690 114.542 -173.9481
3499.375173 114.524 -173.6864
3524.733088 114.507 -173.4042
3550.274757 114.494 -173.0908
3576.001511 114.487 -172.7470
3601.914692 114.489 -172.3888
3628.015651 114.499 -172.0390
3654.305748 114.518 -171.7151
3680.786354 114.543 -171.4265
3707.458849 114.573 -171.1758
3734.324624 114.608 -170.9623
3761.385080 114.646 -170.7874
3788.641627 114.686 -170.6508
3816.095686 114.728 -170.5538
3843.748688 114.773 -170.4961
3871.602076 114.819 -170.4840
3899.657300 114.866 -170.5242
3927.915825 114.916 -170.6295
3956.379122 114.964 -170.8224
3985.048676 115.007 -171.1210
4013.925981 115.037 -171.5377
4043.012544 115.046 -172.0702
4072.309879 115.022 -172.6717
4101.819515 114.959 -173.1887
4131.542990 114.870 -173.3810
4161.481854 114.791 -173.1203
4191.637667 114.759 -172.5870
4222.012001 114.782 -172.1583
4252.606441 114.837 -172.0887
4283.422580 114.889 -172.4088
4314.462026 114.912 -173.0527
4345.726396 114.880 -173.9538
4377.217321 114.766 -174.9994
4408.936442 114.546 -175.8353
4440.885413 114.243 -175.7374
4473.065899 113.963 -174.0358
4505.479579 113.844 -171.1411
4538.128141 113.934 -168.4569
4571.013288 114.151 -166.8298
4604.136735 114.398 -166.1577
4637.500207 114.619 -166.0608
4671.105446 114.803 -166.2612
4704.954201 114.952 -166.6063
4739.048239 115.072 -167.0200
4773.389336 115.173 -167.4696
4807.979283 115.258 -167.9380
4842.819883 115.331 -168.4212
4877.912952 115.394 -168.9285
4913.260320 115.446 -169.4646
4948.863830 115.488 -170.0267
4984.725337 115.518 -170.6005
5020.846712 115.538 -171.1616
5057.229836 115.548 -171.6897
5093.876609 115.554 -172.1882
5130.788938 115.556 -172.6716
5167.968750 115.555 -173.1478
5205.417982 115.551 -173.6146
5243.138586 115.545 -174.0780
5281.132530 115.537 -174.5485
5319.401793 115.525 -175.0301
5357.948371 115.509 -175.5143
5396.774274 115.489 -175.9887
5435.881525 115.467 -176.4441
5475.272163 115.446 -176.8889
5514.948243 115.429 -177.3474
5554.911831 115.414 -177.8486
5595.165012 115.401 -178.4176
5635.709884 115.387 -179.0808
5676.548561 115.370 -179.8694
5717.683172 115.342 179.1735
5759.115861 115.294 177.9973
5800.848789 115.205 176.5619
5842.884130 115.051 174.8787
5885.224077 114.798 173.0884
5927.870837 114.424 171.5489
5970.826633 113.942 170.8246
6014.093704 113.412 171.4394
6057.674306 112.932 173.4653
6101.570711 112.587 176.3934
6145.785208 112.409 179.5012
6190.320101 112.368 -177.7139
6235.177712 112.414 -175.4228
6280.360380 112.508 -173.5900
6325.870460 112.622 -172.1270
6371.710325 112.743 -170.9516
6417.882365 112.865 -169.9988
6464.388986 112.985 -169.2257
6511.232613 113.102 -168.6078
6558.415689 113.213 -168.1391
6605.940673 113.312 -167.8294
6653.810042 113.389 -167.6843
6702.026292 113.429 -167.6744
6750.591937 113.414 -167.6604
6799.509509 113.343 -167.2954
6848.781558 113.262 -166.0916
6898.410653 113.258 -163.9060
6948.399380 113.399 -161.4051
6998.750346 113.666 -159.4709
7049.466176 113.987 -158.3296
7100.549514 114.311 -157.6867
7152.003023 114.628 -157.2432
7203.829385 114.950 -156.9031
7256.031302 115.289 -156.6964
7308.611496 115.649 -156.6827
7361.572708 116.032 -156.9229
7414.917698 116.433 -157.4691
7468.649249 116.847 -158.3645
7522.770160 117.267 -159.6423
7577.283253 117.684 -161.3359
7632.191371 118.090 -163.4850
7687.497376 118.470 -166.1148
7743.204151 118.809 -169.2178
7799.314600 119.091 -172.7497
7855.831649 119.305 -176.6305
7912.758244 119.443 179.2435
7970.097352 119.505 174.9796
8027.851962 119.492 170.6505
8086.025087 119.406 166.2945
8144.619758 119.247 161.9440
8203.639030 119.014 157.6464
8263.085980 118.704 153.4555
8322.963708 118.317 149.4172
8383.275334 117.849 145.5799
8444.024002 117.294 142.0366
8505.212881 116.651 138.9529
8566.845160 115.925 136.5373
8628.924051 115.136 134.9826
8691.452792 114.315 134.4883
8754.434642 113.517 135.2294
8817.872884 112.813 137.0973
8881.770826 112.259 139.5479
8946.131799 111.858 141.9439
9010.959157 111.568 143.9625
9076.256282 111.340 145.5963
9142.026576 111.146 146.9595
9208.273470 110.973 148.1638
9275.000415 110.820 149.2381
9342.210891 110.685 150.1569
9409.908403 110.563 150.8962
9478.096478 110.449 151.4475
9546.778672 110.335 151.8268
9615.958566 110.217 152.0389
9685.639765 110.088 152.0757
9755.825904 109.938 151.9503
9826.520640 109.760 151.7116
9897.727659 109.546 151.4514
9969.450674 109.294 151.2841
10041.693423 109.010 151.3225
10114.459673 108.708 151.6910
10187.753217 108.414 152.4553
10261.577877 108.158 153.5546
10335.937500 107.962 154.7944
10410.835964 107.831 155.8892
10486.277173 107.746 156.5527
10562.265060 107.668 156.5989
10638.803587 107.547 155.9905
10715.896743 107.331 154.8976
10793.548548 106.984 153.7250
10871.763050 106.499 152.9967
10950.544327 105.911 153.2477
11029.896485 105.291 154.8336
11109.823662 104.730 157.7007
11190.330024 104.301 161.3806
11271.419768 104.029 165.2734
11353.097122 103.896 168.9282
11435.366344 103.860 172.1382
11518.231722 103.883 174.8840
11601.697577 103.939 177.2285
11685.768261 104.012 179.2603
11770.448155 104.095 -178.9565
11855.741674 104.187 -177.3896
11941.653265 104.289 -176.0280
12028.187408 104.399 -174.8840
12115.348612 104.515 -173.9890
12203.141422 104.631 -173.3625
12291.570415 104.740 -173.0232
12380.640201 104.832 -172.9913
12470.355424 104.896 -173.2704
12560.720760 104.919 -173.8222
12651.740920 104.886 -174.5647
12743.420650 104.789 -175.3940
12835.764729 104.627 -176.1701
12928.777972 104.402 -176.7651
13022.465227 104.118 -177.0578
13116.831378 103.787 -176.9330
13211.881345 103.425 -176.2605
13307.620084 103.058 -174.9043
13404.052584 102.723 -172.8137
13501.183875 102.462 -170.0684
13599.019019 102.311 -166.8946
13697.563116 102.288 -163.6346
13796.821305 102.386 -160.6431
13896.798760 102.581 -158.1485
13997.500692 102.843 -156.2350
14098.932352 103.149 -154.9291
14201.099028 103.483 -154.2579
14304.006046 103.818 -154.3428
14407.658770 104.117 -155.2911
14512.062604 104.337 -157.0004
14617.222992 104.445 -159.1945
14723.145416 104.431 -161.5543
14829.835397 104.301 -163.7813
14937.298497 104.076 -165.6564
15045.540320 103.782 -167.0470
15154.566507 103.447 -167.9174
15264.382743 103.093 -168.3073
15374.994752 102.737 -168.2907
15486.408302 102.388 -167.9471
15598.629201 102.051 -167.3480
15711.663298 101.724 -166.5303
15825.516487 101.409 -165.4996
15940.194703 101.104 -164.2402
16055.703925 100.815 -162.7088
16172.050174 100.548 -160.8674
16289.239516 100.317 -158.7339
16407.278061 100.139 -156.3313
16526.171961 100.030 -153.7454
16645.927415 100.000 -151.0987
16766.550667 100.055 -148.5231
16888.048005 100.197 -146.1962
17010.425762 100.418 -144.2954
17133.690320 100.706 -142.9669
17257.848103 101.041 -142.3259
17382.905584 101.403 -142.4545
17508.869284 101.766 -143.4418
17635.745768 102.101 -145.3736
17763.541652 102.367 -148.3024
17892.263597 102.522 -152.1962
18021.918315 102.517 -156.9018
18152.512564 102.314 -162.1124
18284.053153 101.888 -167.4071
18416.546939 101.232 -172.3278
18550.000830 100.358 -176.4488
18684.421783 99.287 -179.4522
18819.816805 98.049 179.0244
18956.192956 96.700 179.4801
19093.557344 95.328 -177.6668
19231.917131 94.055 -172.4632
19371.279531 93.007 -165.4486
19511.651807 92.256 -157.5740
19653.041280 91.790 -149.7787
19795.455318 91.541 -142.6017
19938.901348 91.435 -136.3660
