* Measurement data measured by REW V5.20.9
* Source: Input device not selected, no input selected, L, volume: no control. Timing signal peak level -41,7 dBFS, measurement signal peak level -5,4 dBFS
* Format: 256k Log Swept Sine, 1 sweep at -12,0 dBFS using an acoustic timing reference
* Dated: 28.02.2023 19:56:54
* REW Settings:
*  C-weighting compensation: Off
*  Target level: 75.0 dB
* Note: Delay 0,0137 ms (4,7 mm, 0,19 in) using estimated IR delay relative to Acoustic reference on  L with no timing offset
* Measurement: T800 L
* Smoothing: 1/12 octave
* Frequency Step: 96 ppo
* Start Frequency: 20.141602 Hz
*
* Freq(Hz) SPL(dB) Phase(degrees)
20.141602 122.577 26.6897
20.287556 122.586 26.4904
20.434568 122.600 26.2011
20.582645 122.616 25.8537
20.731796 122.634 25.4755
20.882027 122.651 25.0864
21.033346 122.670 24.6987
21.185763 122.689 24.3182
21.339284 122.708 23.9461
21.493917 122.730 23.5802
21.649671 122.753 23.2158
21.806553 122.779 22.8469
21.964572 122.806 22.4673
22.123737 122.834 22.0714
22.284054 122.863 21.6555
22.445534 122.890 21.2178
22.608183 122.916 20.7596
22.772012 122.938 20.2850
22.937027 122.957 19.8007
23.103238 122.971 19.3150
23.270654 122.982 18.8374
23.439282 122.989 18.3771
23.609133 122.993 17.9417
23.780215 122.997 17.5360
23.952536 123.002 17.1610
24.126106 123.009 16.8133
24.300934 123.021 16.4854
24.477028 123.038 16.1660
24.654399 123.061 15.8418
24.833055 123.089 15.4987
25.013005 123.120 15.1241
25.194260 123.153 14.7083
25.376828 123.186 14.2461
25.560719 123.215 13.7377
25.745942 123.240 13.1882
25.932508 123.258 12.6072
26.120426 123.269 12.0078
26.309705 123.273 11.4047
26.500356 123.270 10.8126
26.692388 123.263 10.2440
26.885812 123.253 9.7080
27.080638 123.243 9.2090
27.276876 123.236 8.7459
27.474535 123.233 8.3128
27.673627 123.235 7.8998
27.874161 123.245 7.4949
28.076149 123.259 7.0860
28.279600 123.278 6.6634
28.484526 123.300 6.2208
28.690937 123.321 5.7565
28.898843 123.341 5.2733
29.108256 123.357 4.7774
29.319186 123.370 4.2767
29.531645 123.379 3.7792
29.745644 123.384 3.2913
29.961193 123.388 2.8163
30.178304 123.391 2.3540
30.396989 123.395 1.9013
30.617258 123.399 1.4530
30.839123 123.405 1.0037
31.062596 123.413 0.5493
31.287688 123.420 0.0885
31.514412 123.427 -0.3775
31.742778 123.433 -0.8448
31.972800 123.437 -1.3083
32.204488 123.440 -1.7634
32.437855 123.442 -2.2070
32.672913 123.443 -2.6390
32.909674 123.445 -3.0622
33.148151 123.447 -3.4812
33.388356 123.449 -3.9017
33.630302 123.452 -4.3290
33.874001 123.454 -4.7664
34.119466 123.456 -5.2150
34.366710 123.456 -5.6738
34.615745 123.455 -6.1402
34.866585 123.454 -6.6113
35.119243 123.451 -7.0843
35.373731 123.449 -7.5570
35.630064 123.446 -8.0284
35.888254 123.443 -8.4979
36.148315 123.440 -8.9654
36.410261 123.438 -9.4310
36.674104 123.435 -9.8948
36.939860 123.432 -10.3573
37.207542 123.429 -10.8193
37.477163 123.426 -11.2818
37.748738 123.423 -11.7455
38.022281 123.420 -12.2111
38.297806 123.415 -12.6786
38.575327 123.411 -13.1472
38.854860 123.405 -13.6160
39.136419 123.399 -14.0839
39.420017 123.392 -14.5503
39.705671 123.385 -15.0148
39.993395 123.377 -15.4775
40.283203 123.369 -15.9384
40.575112 123.361 -16.3973
40.869136 123.352 -16.8537
41.165290 123.343 -17.3074
41.463591 123.334 -17.7583
41.764053 123.325 -18.2069
42.066693 123.316 -18.6541
42.371525 123.307 -19.1013
42.678567 123.297 -19.5500
42.987834 123.286 -20.0016
43.299341 123.274 -20.4572
43.613106 123.262 -20.9180
43.929145 123.248 -21.3841
44.247473 123.234 -21.8547
44.568109 123.219 -22.3274
44.891068 123.204 -22.7988
45.216367 123.189 -23.2657
45.544023 123.174 -23.7268
45.874054 123.159 -24.1834
46.206476 123.144 -24.6386
46.541307 123.127 -25.0958
46.878565 123.108 -25.5556
47.218266 123.084 -26.0143
47.560429 123.057 -26.4656
47.905072 123.027 -26.9038
48.252212 122.999 -27.3289
48.601867 122.976 -27.7484
48.954056 122.958 -28.1757
49.308798 122.947 -28.6243
49.666109 122.941 -29.1008
50.026010 122.936 -29.6018
50.388520 122.929 -30.1147
50.753656 122.920 -30.6239
51.121437 122.906 -31.1172
51.491884 122.890 -31.5900
51.865016 122.871 -32.0447
52.240851 122.850 -32.4877
52.619410 122.827 -32.9247
53.000712 122.802 -33.3589
53.384777 122.777 -33.7905
53.771625 122.750 -34.2194
54.161276 122.725 -34.6464
54.553751 122.699 -35.0735
54.949070 122.674 -35.5025
55.347254 122.648 -35.9339
55.748323 122.623 -36.3658
56.152298 122.596 -36.7947
56.559201 122.569 -37.2170
56.969052 122.543 -37.6305
57.381873 122.518 -38.0343
57.797686 122.494 -38.4288
58.216512 122.472 -38.8144
58.638373 122.450 -39.1914
59.063291 122.429 -39.5603
59.491288 122.408 -39.9230
59.922386 122.386 -40.2827
60.356608 122.364 -40.6441
60.793977 122.340 -41.0111
61.234515 122.316 -41.3864
61.678246 122.291 -41.7709
62.125192 122.267 -42.1632
62.575377 122.243 -42.5605
63.028824 122.222 -42.9590
63.485557 122.203 -43.3553
63.945599 122.186 -43.7484
64.408975 122.171 -44.1399
64.875709 122.157 -44.5334
65.345825 122.143 -44.9321
65.819348 122.127 -45.3376
66.296302 122.110 -45.7495
66.776713 122.090 -46.1655
67.260604 122.069 -46.5816
67.748002 122.046 -46.9923
68.238932 122.023 -47.3912
68.733420 121.998 -47.7725
69.231490 121.974 -48.1322
69.733170 121.951 -48.4695
70.238485 121.930 -48.7865
70.747463 121.912 -49.0886
71.260128 121.899 -49.3838
71.776508 121.890 -49.6820
72.296630 121.887 -49.9940
72.820521 121.889 -50.3305
73.348209 121.895 -50.7006
73.879720 121.905 -51.1112
74.415083 121.918 -51.5663
74.954326 121.930 -52.0665
75.497475 121.941 -52.6089
76.044561 121.947 -53.1874
76.595612 121.948 -53.7940
77.150655 121.943 -54.4193
77.709720 121.930 -55.0536
78.272837 121.912 -55.6890
78.840034 121.888 -56.3200
79.411342 121.860 -56.9430
79.986789 121.829 -57.5549
80.566406 121.795 -58.1530
81.150224 121.762 -58.7357
81.738272 121.728 -59.3034
82.330581 121.695 -59.8579
82.927182 121.662 -60.4012
83.528107 121.628 -60.9353
84.133386 121.594 -61.4627
84.743051 121.558 -61.9853
85.357134 121.521 -62.5043
85.975667 121.484 -63.0192
86.598682 121.446 -63.5288
87.226212 121.409 -64.0320
87.858289 121.373 -64.5280
88.494946 121.337 -65.0165
89.136217 121.301 -65.4967
89.782135 121.265 -65.9679
90.432733 121.229 -66.4304
91.088046 121.192 -66.8861
91.748108 121.154 -67.3385
92.412952 121.117 -67.7908
93.082615 121.079 -68.2443
93.757130 121.042 -68.6990
94.436533 121.006 -69.1535
95.120859 120.970 -69.6071
95.810144 120.934 -70.0598
96.504423 120.899 -70.5125
97.203734 120.863 -70.9662
97.908112 120.827 -71.4214
98.617595 120.791 -71.8773
99.332219 120.755 -72.3326
100.052021 120.718 -72.7863
100.777039 120.682 -73.2375
101.507311 120.645 -73.6861
102.242875 120.608 -74.1325
102.983769 120.571 -74.5768
103.730032 120.534 -75.0193
104.481702 120.498 -75.4602
105.238820 120.461 -75.9000
106.001424 120.425 -76.3390
106.769554 120.389 -76.7774
107.543250 120.353 -77.2159
108.322553 120.317 -77.6549
109.107503 120.281 -78.0943
109.898141 120.244 -78.5336
110.694508 120.208 -78.9724
111.496646 120.171 -79.4103
112.304596 120.134 -79.8472
113.118402 120.097 -80.2827
113.938104 120.061 -80.7169
114.763747 120.024 -81.1496
115.595372 119.987 -81.5809
116.433024 119.950 -82.0107
117.276746 119.913 -82.4385
118.126581 119.877 -82.8637
118.982575 119.840 -83.2860
119.844772 119.804 -83.7055
120.713217 119.768 -84.1233
121.587954 119.733 -84.5407
122.469031 119.697 -84.9594
123.356492 119.662 -85.3807
124.250384 119.628 -85.8049
125.150753 119.593 -86.2313
126.057647 119.559 -86.6586
126.971113 119.525 -87.0850
127.891198 119.490 -87.5099
128.817950 119.456 -87.9338
129.751418 119.422 -88.3580
130.691651 119.388 -88.7840
131.638696 119.354 -89.2120
132.592604 119.319 -89.6418
133.553425 119.285 -90.0733
134.521208 119.250 -90.5063
135.496004 119.215 -90.9405
136.477864 119.180 -91.3754
137.466839 119.144 -91.8102
138.462981 119.109 -92.2442
139.466340 119.073 -92.6768
140.476971 119.037 -93.1079
141.494925 119.001 -93.5372
142.520256 118.965 -93.9648
143.553016 118.929 -94.3909
144.593260 118.893 -94.8160
145.641043 118.856 -95.2401
146.696418 118.819 -95.6624
147.759441 118.783 -96.0822
148.830166 118.746 -96.4989
149.908651 118.710 -96.9123
150.994951 118.674 -97.3223
152.089123 118.639 -97.7291
153.191223 118.604 -98.1338
154.301310 118.569 -98.5371
155.419441 118.534 -98.9402
156.545674 118.499 -99.3433
157.680069 118.464 -99.7468
158.822683 118.430 -100.1507
159.973578 118.395 -100.5549
161.132813 118.361 -100.9592
162.300447 118.327 -101.3636
163.476543 118.292 -101.7677
164.661162 118.258 -102.1714
165.854364 118.224 -102.5743
167.056213 118.189 -102.9758
168.266772 118.156 -103.3754
169.486102 118.122 -103.7722
170.714268 118.088 -104.1663
171.951334 118.054 -104.5574
173.197364 118.021 -104.9457
174.452424 117.988 -105.3317
175.716578 117.955 -105.7159
176.989893 117.923 -106.0990
178.272434 117.892 -106.4813
179.564270 117.861 -106.8628
180.865467 117.830 -107.2434
182.176092 117.799 -107.6228
183.496216 117.769 -108.0011
184.825905 117.740 -108.3786
186.165229 117.711 -108.7554
187.514259 117.682 -109.1318
188.873065 117.655 -109.5076
190.241717 117.628 -109.8835
191.620287 117.602 -110.2607
193.008847 117.578 -110.6414
194.407468 117.554 -111.0278
195.816225 117.530 -111.4221
197.235190 117.507 -111.8251
198.664438 117.483 -112.2364
200.104042 117.459 -112.6542
201.554078 117.435 -113.0764
203.014622 117.409 -113.5016
204.485750 117.383 -113.9284
205.967538 117.356 -114.3557
207.460064 117.329 -114.7827
208.963405 117.301 -115.2086
210.477640 117.272 -115.6332
212.002848 117.243 -116.0563
213.539108 117.213 -116.4777
215.086500 117.183 -116.8972
216.645105 117.153 -117.3146
218.215005 117.122 -117.7295
219.796281 117.091 -118.1417
221.389015 117.061 -118.5507
222.993292 117.030 -118.9560
224.609193 116.999 -119.3579
226.236804 116.968 -119.7569
227.876209 116.938 -120.1535
229.527494 116.907 -120.5480
231.190745 116.877 -120.9402
232.866048 116.846 -121.3299
234.553491 116.816 -121.7171
236.253163 116.785 -122.1017
237.965150 116.755 -122.4838
239.689544 116.725 -122.8640
241.426433 116.695 -123.2425
243.175909 116.666 -123.6197
244.938062 116.637 -123.9957
246.712984 116.607 -124.3705
248.500768 116.579 -124.7444
250.301507 116.550 -125.1173
252.115295 116.522 -125.4893
253.942226 116.493 -125.8602
255.782396 116.465 -126.2300
257.635901 116.437 -126.5986
259.502837 116.409 -126.9660
261.383301 116.381 -127.3324
263.277392 116.353 -127.6979
265.185209 116.325 -128.0623
267.106850 116.298 -128.4253
269.042417 116.270 -128.7867
270.992009 116.242 -129.1462
272.955729 116.214 -129.5036
274.933678 116.186 -129.8587
276.925961 116.158 -130.2114
278.932681 116.130 -130.5621
280.953942 116.103 -130.9111
282.989850 116.076 -131.2587
285.040511 116.049 -131.6051
287.106032 116.022 -131.9505
289.186521 115.995 -132.2946
291.282086 115.968 -132.6371
293.392836 115.941 -132.9779
295.518881 115.914 -133.3168
297.660333 115.888 -133.6539
299.817302 115.861 -133.9892
301.989902 115.835 -134.3228
304.178245 115.809 -134.6547
306.382446 115.782 -134.9851
308.602620 115.756 -135.3138
310.838882 115.730 -135.6407
313.091348 115.704 -135.9651
315.360137 115.678 -136.2868
317.645367 115.652 -136.6057
319.947156 115.626 -136.9223
322.265625 115.600 -137.2371
324.600895 115.575 -137.5504
326.953086 115.550 -137.8621
329.322323 115.525 -138.1719
331.708729 115.500 -138.4791
334.112427 115.476 -138.7836
336.533543 115.452 -139.0855
338.972204 115.428 -139.3851
341.428536 115.404 -139.6829
343.902668 115.381 -139.9795
346.394729 115.358 -140.2749
348.904848 115.335 -140.5687
351.433156 115.312 -140.8604
353.979786 115.290 -141.1494
356.544869 115.267 -141.4353
359.128540 115.245 -141.7186
361.730934 115.223 -141.9998
364.352185 115.202 -142.2799
366.992431 115.181 -142.5601
369.651810 115.161 -142.8411
372.330459 115.140 -143.1237
375.028519 115.120 -143.4081
377.746130 115.100 -143.6941
380.483434 115.080 -143.9809
383.240574 115.060 -144.2676
386.017693 115.039 -144.5534
388.814937 115.018 -144.8376
391.632450 114.997 -145.1196
394.470380 114.976 -145.3991
397.328875 114.955 -145.6759
400.208084 114.935 -145.9500
403.108157 114.914 -146.2216
406.029245 114.893 -146.4907
408.971500 114.872 -146.7572
411.935076 114.851 -147.0210
414.920127 114.829 -147.2822
417.926810 114.808 -147.5410
420.955280 114.787 -147.7972
424.005695 114.766 -148.0511
427.078215 114.746 -148.3030
430.173000 114.725 -148.5536
433.290211 114.705 -148.8033
436.430010 114.685 -149.0523
439.592562 114.664 -149.3003
442.778031 114.644 -149.5465
445.986583 114.625 -149.7902
449.218386 114.605 -150.0304
452.473607 114.585 -150.2672
455.752418 114.566 -150.5013
459.054987 114.547 -150.7338
462.381489 114.527 -150.9660
465.732096 114.508 -151.1986
469.106983 114.489 -151.4313
472.506325 114.469 -151.6632
475.930301 114.450 -151.8934
479.379088 114.430 -152.1206
482.852867 114.411 -152.3443
486.351817 114.391 -152.5642
489.876123 114.372 -152.7808
493.425968 114.352 -152.9949
497.001536 114.332 -153.2069
500.603014 114.312 -153.4170
504.230589 114.292 -153.6250
507.884452 114.272 -153.8306
511.564792 114.252 -154.0332
515.271802 114.232 -154.2326
519.005673 114.213 -154.4286
522.766602 114.193 -154.6214
526.554785 114.173 -154.8111
530.370418 114.154 -154.9978
534.213700 114.134 -155.1816
538.084833 114.115 -155.3628
541.984018 114.096 -155.5412
545.911457 114.077 -155.7166
549.867357 114.058 -155.8889
553.851922 114.039 -156.0578
557.865362 114.020 -156.2237
561.907884 114.001 -156.3865
565.979700 113.981 -156.5459
570.081022 113.962 -156.7014
574.212064 113.942 -156.8527
578.373042 113.923 -156.9996
582.564171 113.904 -157.1422
586.785671 113.885 -157.2806
591.037762 113.866 -157.4153
595.320665 113.847 -157.5467
599.634604 113.829 -157.6747
603.979804 113.811 -157.7993
608.356491 113.793 -157.9202
612.764893 113.775 -158.0369
617.205240 113.757 -158.1489
621.677763 113.740 -158.2562
626.182696 113.723 -158.3589
630.720274 113.706 -158.4571
635.290733 113.690 -158.5513
639.894312 113.674 -158.6416
644.531250 113.657 -158.7280
649.201789 113.642 -158.8102
653.906173 113.626 -158.8877
658.644647 113.611 -158.9603
663.417457 113.595 -159.0279
668.224854 113.581 -159.0908
673.067086 113.566 -159.1492
677.944408 113.552 -159.2037
682.857073 113.538 -159.2546
687.805336 113.524 -159.3021
692.789457 113.511 -159.3459
697.809695 113.499 -159.3853
702.866312 113.487 -159.4193
707.959571 113.476 -159.4474
713.089738 113.465 -159.4690
718.257080 113.454 -159.4840
723.461867 113.444 -159.4926
728.704370 113.434 -159.4956
733.984862 113.425 -159.4938
739.303619 113.417 -159.4878
744.660918 113.409 -159.4776
750.057038 113.402 -159.4631
755.492260 113.395 -159.4439
760.966869 113.390 -159.4199
766.481148 113.386 -159.3909
772.035387 113.382 -159.3571
777.629873 113.379 -159.3184
783.264900 113.377 -159.2751
788.940760 113.377 -159.2273
794.657750 113.377 -159.1752
800.416168 113.378 -159.1185
806.216313 113.380 -159.0572
812.058489 113.384 -158.9912
817.943000 113.388 -158.9207
823.870152 113.394 -158.8459
829.840255 113.401 -158.7670
835.853619 113.409 -158.6841
841.910559 113.418 -158.5974
848.011390 113.429 -158.5073
854.156430 113.442 -158.4142
860.346000 113.456 -158.3186
866.580422 113.471 -158.2208
872.860020 113.489 -158.1214
879.185124 113.507 -158.0207
885.556062 113.528 -157.9191
891.973166 113.550 -157.8166
898.436771 113.574 -157.7131
904.947215 113.599 -157.6089
911.504835 113.626 -157.5045
918.109975 113.655 -157.4002
924.762978 113.685 -157.2968
931.464192 113.718 -157.1952
938.213966 113.752 -157.0966
945.012651 113.788 -157.0021
951.860602 113.826 -156.9126
958.758176 113.866 -156.8286
965.705733 113.908 -156.7506
972.703635 113.952 -156.6790
979.752246 113.999 -156.6140
986.851935 114.046 -156.5557
994.003071 114.096 -156.5048
1001.206027 114.147 -156.4618
1008.461179 114.200 -156.4276
1015.768904 114.255 -156.4030
1023.129584 114.311 -156.3889
1030.543603 114.368 -156.3860
1038.011347 114.427 -156.3948
1045.533205 114.487 -156.4162
1053.109569 114.549 -156.4507
1060.740836 114.611 -156.4989
1068.427401 114.675 -156.5614
1076.169666 114.741 -156.6391
1083.968035 114.807 -156.7327
1091.822915 114.874 -156.8430
1099.734713 114.942 -156.9707
1107.703844 115.010 -157.1164
1115.730723 115.078 -157.2810
1123.815768 115.147 -157.4651
1131.959400 115.215 -157.6694
1140.162045 115.283 -157.8945
1148.424129 115.350 -158.1407
1156.746083 115.416 -158.4081
1165.128342 115.480 -158.6962
1173.571343 115.542 -159.0039
1182.075524 115.602 -159.3298
1190.641331 115.659 -159.6720
1199.269209 115.713 -160.0280
1207.959608 115.764 -160.3946
1216.712981 115.811 -160.7684
1225.529785 115.854 -161.1454
1234.410479 115.894 -161.5219
1243.355526 115.930 -161.8938
1252.365393 115.962 -162.2572
1261.440549 115.992 -162.6086
1270.581467 116.019 -162.9450
1279.788624 116.044 -163.2642
1289.062500 116.067 -163.5649
1298.403578 116.090 -163.8468
1307.812346 116.112 -164.1103
1317.289293 116.134 -164.3564
1326.834914 116.156 -164.5863
1336.449707 116.180 -164.8014
1346.134173 116.204 -165.0032
1355.888816 116.230 -165.1934
1365.714145 116.257 -165.3736
1375.610673 116.286 -165.5455
1385.578915 116.316 -165.7108
1395.619391 116.348 -165.8709
1405.732624 116.381 -166.0268
1415.919142 116.415 -166.1795
1426.179476 116.452 -166.3294
1436.514160 116.489 -166.4771
1446.923734 116.528 -166.6232
1457.408740 116.569 -166.7683
1467.969724 116.611 -166.9130
1478.607238 116.654 -167.0579
1489.321836 116.699 -167.2035
1500.114076 116.746 -167.3497
1510.984521 116.793 -167.4965
1521.933737 116.843 -167.6440
1532.962297 116.893 -167.7926
1544.070773 116.945 -167.9431
1555.259747 116.999 -168.0966
1566.529800 117.054 -168.2542
1577.881521 117.111 -168.4161
1589.315501 117.169 -168.5824
1600.832336 117.229 -168.7529
1612.432627 117.291 -168.9275
1624.116978 117.354 -169.1066
1635.886000 117.418 -169.2912
1647.740304 117.484 -169.4822
1659.680509 117.552 -169.6808
1671.707238 117.621 -169.8875
1683.821118 117.692 -170.1030
1696.022780 117.765 -170.3274
1708.312860 117.839 -170.5609
1720.692000 117.915 -170.8037
1733.160843 117.993 -171.0566
1745.720041 118.071 -171.3204
1758.370248 118.152 -171.5960
1771.112124 118.234 -171.8846
1783.946332 118.318 -172.1869
1796.873543 118.404 -172.5036
1809.894429 118.490 -172.8352
1823.009670 118.578 -173.1820
1836.219950 118.667 -173.5446
1849.525956 118.758 -173.9232
1862.928384 118.849 -174.3188
1876.427931 118.941 -174.7327
1890.025301 119.034 -175.1662
1903.721204 119.128 -175.6208
1917.516352 119.223 -176.0973
1931.411466 119.318 -176.5958
1945.407270 119.413 -177.1165
1959.504493 119.509 -177.6594
1973.703870 119.604 -178.2250
1988.006142 119.699 -178.8141
2002.412054 119.793 -179.4276
2016.922357 119.887 179.9333
2031.537808 119.980 179.2679
2046.259169 120.073 178.5762
2061.087206 120.165 177.8588
2076.022694 120.255 177.1168
2091.066410 120.342 176.3508
2106.219139 120.428 175.5618
2121.481671 120.511 174.7502
2136.854802 120.591 173.9164
2152.339333 120.668 173.0605
2167.936071 120.743 172.1835
2183.645829 120.813 171.2866
2199.469427 120.881 170.3718
2215.407689 120.945 169.4413
2231.461446 121.004 168.4974
2247.631536 121.059 167.5421
2263.918800 121.110 166.5773
2280.324089 121.156 165.6051
2296.848258 121.198 164.6276
2313.492167 121.235 163.6471
2330.256685 121.268 162.6658
2347.142685 121.296 161.6861
2364.151049 121.320 160.7104
2381.282662 121.340 159.7411
2398.538418 121.355 158.7808
2415.919216 121.366 157.8319
2433.425962 121.374 156.8967
2451.059570 121.377 155.9771
2468.820958 121.378 155.0746
2486.711052 121.375 154.1909
2504.730786 121.370 153.3276
2522.881098 121.362 152.4862
2541.162934 121.352 151.6683
2559.577248 121.340 150.8752
2578.125000 121.326 150.1079
2596.807157 121.311 149.3672
2615.624692 121.296 148.6532
2634.578586 121.280 147.9660
2653.669829 121.264 147.3053
2672.899414 121.248 146.6708
2692.268345 121.234 146.0623
2711.777632 121.221 145.4799
2731.428290 121.209 144.9235
2751.221345 121.199 144.3931
2771.157829 121.191 143.8884
2791.238781 121.186 143.4087
2811.465248 121.183 142.9535
2831.838284 121.185 142.5221
2852.358952 121.190 142.1140
2873.028321 121.199 141.7287
2893.847468 121.214 141.3661
2914.817480 121.235 141.0253
2935.939449 121.261 140.7050
2957.214476 121.295 140.4023
2978.643672 121.337 140.1133
3000.228152 121.387 139.8325
3021.969041 121.448 139.5528
3043.867475 121.520 139.2656
3065.924593 121.603 138.9613
3088.141547 121.697 138.6293
3110.519493 121.803 138.2589
3133.059600 121.919 137.8392
3155.763041 122.046 137.3602
3178.631001 122.182 136.8127
3201.664672 122.326 136.1887
3224.865254 122.478 135.4811
3248.233957 122.635 134.6843
3271.771999 122.798 133.7929
3295.480608 122.965 132.8026
3319.361019 123.135 131.7090
3343.414477 123.306 130.5081
3367.642236 123.477 129.1954
3392.045560 123.646 127.7671
3416.625721 123.812 126.2196
3441.383999 123.973 124.5502
3466.321686 124.126 122.7573
3491.440082 124.270 120.8409
3516.740496 124.402 118.8035
3542.224247 124.519 116.6496
3567.892664 124.620 114.3867
3593.747085 124.701 112.0248
3619.788858 124.760 109.5771
3646.019340 124.796 107.0594
3672.439900 124.807 104.4898
3699.051913 124.791 101.8885
3725.856768 124.749 99.2766
3752.855862 124.680 96.6762
3780.050603 124.583 94.1090
3807.442408 124.462 91.5961
3835.032705 124.316 89.1567
3862.822933 124.147 86.8081
3890.814540 123.959 84.5652
3919.008986 123.754 82.4402
3947.407741 123.534 80.4423
3976.012284 123.303 78.5775
4004.824108 123.062 76.8490
4033.844715 122.816 75.2574
4063.075616 122.566 73.8005
4092.518337 122.315 72.4743
4122.174412 122.066 71.2728
4152.045387 121.820 70.1885
4182.132820 121.580 69.2130
4212.438278 121.347 68.3370
4242.963342 121.123 67.5501
4273.709604 120.908 66.8416
4304.678665 120.703 66.2001
4335.872141 120.510 65.6139
4367.291658 120.329 65.0709
4398.938854 120.160 64.5588
4430.815378 120.004 64.0652
4462.922893 119.862 63.5773
4495.263072 119.733 63.0825
4527.837601 119.616 62.5679
4560.648179 119.512 62.0201
4593.696515 119.419 61.4254
4626.984334 119.336 60.7699
4660.513370 119.263 60.0395
4694.285371 119.197 59.2203
4728.302098 119.138 58.2994
4762.565324 119.081 57.2648
4797.076835 119.026 56.1061
4831.838432 118.968 54.8156
4866.851925 118.904 53.3882
4902.119140 118.829 51.8227
4937.641916 118.740 50.1227
4973.422105 118.633 48.2967
5009.461572 118.502 46.3589
5045.762195 118.344 44.3292
5082.325868 118.155 42.2324
5119.154496 117.932 40.0986
5156.250000 117.672 37.9616
5193.614313 117.376 35.8575
5231.249383 117.042 33.8238
5269.157173 116.672 31.8972
5307.339658 116.267 30.1123
5345.798829 115.830 28.5002
5384.536691 115.364 27.0867
5423.555263 114.874 25.8922
5462.856580 114.364 24.9319
5502.442691 113.838 24.2153
5542.315659 113.300 23.7477
5582.477563 112.754 23.5309
5622.930497 112.204 23.5637
5663.676569 111.652 23.8438
5704.717904 111.102 24.3678
5746.056642 110.556 25.1319
5787.694937 110.017 26.1318
5829.634960 109.487 27.3630
5871.878898 108.967 28.8209
5914.428953 108.461 30.5010
5957.287343 107.969 32.3997
6000.456303 107.494 34.5143
6043.938083 107.038 36.8436
6087.734950 106.603 39.3870
6131.849187 106.191 42.1446
6176.283094 105.805 45.1158
6221.038987 105.450 48.2990
6266.119200 105.127 51.6896
6311.526083 104.843 55.2773
6357.262002 104.602 59.0426
6403.329344 104.408 62.9531
6449.730508 104.266 66.9616
6496.467914 104.177 71.0070
6543.543998 104.141 75.0218
6590.961215 104.154 78.9424
6638.722037 104.209 82.7221
6686.828954 104.300 86.3411
6735.284473 104.419 89.8081
6784.091120 104.560 93.1560
6833.251441 104.722 96.4325
6882.767998 104.904 99.6886
6932.643372 105.112 102.9666
6982.880164 105.353 106.2867
7033.480992 105.634 109.6375
7084.448495 105.961 112.9787
7135.785329 106.338 116.2588
7187.494171 106.766 119.4297
7239.577717 107.246 122.4459
7292.038681 107.777 125.2607
7344.879799 108.360 127.8288
7398.103826 108.991 130.1071
7451.713536 109.669 132.0518
7505.711724 110.391 133.6144
7560.101205 111.153 134.7419
7614.884815 111.947 135.3781
7670.065409 112.764 135.4673
7725.645865 113.594 134.9586
7781.629080 114.423 133.8108
7838.017972 115.236 131.9964
7894.815481 116.014 129.5077
7952.024569 116.741 126.3612
8009.648217 117.398 122.6017
8067.689429 117.969 118.3045
8126.151233 118.439 113.5745
8185.036674 118.800 108.5422
8244.348824 119.045 103.3552
8304.090774 119.178 98.1661
8364.265639 119.206 93.1182
8424.876556 119.143 88.3316
8485.926684 119.007 83.8936
8547.419207 118.816 79.8535
8609.357330 118.589 76.2225
8671.744282 118.344 72.9786
8734.583316 118.095 70.0739
8797.877707 117.850 67.4449
8861.630756 117.616 65.0217
8925.845785 117.393 62.7373
8990.526143 117.179 60.5346
9055.675202 116.969 58.3712
9121.296357 116.758 56.2216
9187.393031 116.539 54.0780
9253.968668 116.306 51.9476
9321.026740 116.054 49.8506
9388.570742 115.779 47.8166
9456.604196 115.480 45.8801
9525.130648 115.157 44.0780
9594.153671 114.812 42.4458
9663.676863 114.448 41.0150
9733.703850 114.069 39.8113
9804.238280 113.682 38.8524
9875.283832 113.292 38.1473
9946.844210 112.905 37.6960
10018.923143 112.529 37.4892
10091.524390 112.169 37.5097
10164.651736 111.830 37.7333
10238.308993 111.517 38.1300
10312.500000 111.234 38.6659
10387.228626 110.984 39.3037
10462.498767 110.768 40.0041
10538.314345 110.589 40.7247
10614.679315 110.447 41.4207
10691.597657 110.342 42.0449
10769.073381 110.271 42.5479
10847.110526 110.232 42.8794
10925.713161 110.220 42.9904
11004.885382 110.230 42.8355
11084.631318 110.252 42.3772
11164.955126 110.277 41.5891
11245.860993 110.293 40.4604
11327.353138 110.289 38.9986
11409.435808 110.252 37.2325
11492.113283 110.171 35.2117
11575.389873 110.037 33.0056
11659.269920 109.841 30.6985
11743.757796 109.580 28.3840
11828.857906 109.253 26.1584
11914.574686 108.862 24.1143
12000.912606 108.414 22.3358
12087.876166 107.915 20.8959
12175.469900 107.375 19.8528
12263.698373 106.806 19.2480
12352.566187 106.219 19.1046
12442.077974 105.625 19.4280
12532.238400 105.037 20.2079
12623.052165 104.465 21.4221
12714.524005 103.919 23.0399
12806.658687 103.406 25.0248
12899.461015 102.935 27.3375
12992.935827 102.510 29.9366
13087.087996 102.138 32.7803
13181.922430 101.822 35.8262
13277.444074 101.569 39.0311
13373.657907 101.383 42.3478
13470.568945 101.268 45.7227
13568.182241 101.229 49.0910
13666.502883 101.270 52.3719
13765.535996 101.394 55.4655
13865.286744 101.601 58.2513
13965.760328 101.887 60.5916
14066.961984 102.240 62.3412
14168.896989 102.644 63.3614
14271.570658 103.073 63.5395
14374.988342 103.496 62.8078
14479.155433 103.874 61.1653
14584.077362 104.169 58.6944
14689.759598 104.343 55.5733
14796.207652 104.367 52.0767
14903.427072 104.225 48.5608
15011.423448 103.920 45.4281
15120.202410 103.474 43.0752
15229.769630 102.932 41.8365
15340.130819 102.356 41.9284
15451.291730 101.819 43.3860
15563.258160 101.395 45.9976
15676.035944 101.145 49.2813
15789.630962 101.091 52.5836
15904.049137 101.209 55.2950
16019.296433 101.442 57.0507
16135.378859 101.724 57.7927
16252.302465 102.002 57.7003
16370.073348 102.249 57.0670
16488.697648 102.463 56.1778
16608.181548 102.663 55.2152
16728.531278 102.872 54.2189
16849.753112 103.110 53.1104
16971.853368 103.383 51.7620
17094.838414 103.687 50.0610
17218.714660 104.016 47.9295
17343.488565 104.366 45.3021
17469.166632 104.728 42.1001
17595.755415 105.086 38.2314
17723.261512 105.415 33.6212
17851.691571 105.680 28.2533
17981.052287 105.845 22.1973
18111.350404 105.883 15.6080
18242.592715 105.774 8.6930
18374.786062 105.519 1.6650
18507.937336 105.127 -5.3047
18642.053479 104.614 -12.1116
18777.141484 103.998 -18.7140
18913.208391 103.290 -25.1030
19050.261296 102.489 -31.2597
19188.307342 101.592 -37.1162
19327.353727 100.594 -42.5404
19467.407699 99.500 -47.3530
19608.476560 98.346 -51.3824
19750.567664 97.213 -54.5453
19893.688419 96.258 -56.9347
20037.846286 95.692 -58.8349
