* Measurement data measured by REW V5.40 beta 98
* Source: Микрофон (HiBy Digital D1), MICROPHONE (Общая громкость), R, volume: 0,250
* Format: 256k Log Swept Sine, 1 sweep at -15,0 dBFS with no timing reference
* Dated: 03.10.2025 15:57:27
* REW Settings:
*  C-weighting compensation: Off
*  Target level: 75.0 dB
* Note: 
* Measurement: LittlePandaPK
* Smoothing: 1/12 octave
* Frequency Step: 96 ppo
* Start Frequency: 0.36621094 Hz
*
* Freq(Hz) SPL(dB) Phase(degrees)
0.366211 41.976 172.9696
0.368865 41.971 172.9609
0.371538 41.964 172.9480
0.374230 41.956 172.9317
0.376942 41.947 172.9130
0.379673 41.936 172.8924
0.382424 41.926 172.8703
0.385196 41.915 172.8471
0.387987 41.904 172.8228
0.390798 41.893 172.7975
0.393630 41.881 172.7713
0.396483 41.870 172.7441
0.399356 41.858 172.7160
0.402250 41.847 172.6870
0.405165 41.835 172.6570
0.408101 41.823 172.6261
0.411058 41.812 172.5943
0.414037 41.800 172.5615
0.417037 41.788 172.5278
0.420059 41.776 172.4931
0.423103 41.763 172.4574
0.426169 41.751 172.4208
0.429257 41.739 172.3832
0.432368 41.726 172.3446
0.435501 41.714 172.3050
0.438656 41.701 172.2643
0.441835 41.688 172.2227
0.445037 41.676 172.1801
0.448262 41.663 172.1365
0.451510 41.650 172.0918
0.454782 41.636 172.0461
0.458077 41.623 171.9994
0.461397 41.610 171.9517
0.464740 41.597 171.9029
0.468108 41.583 171.8531
0.471500 41.570 171.8023
0.474917 41.556 171.7504
0.478358 41.542 171.6974
0.481825 41.528 171.6434
0.485316 41.514 171.5884
0.488833 41.500 171.5324
0.492375 41.486 171.4753
0.495943 41.472 171.4171
0.499537 41.457 171.3579
0.503157 41.443 171.2977
0.506803 41.428 171.2364
0.510475 41.413 171.1741
0.514175 41.399 171.1107
0.517900 41.384 171.0464
0.521653 41.369 170.9810
0.525434 41.354 170.9146
0.529241 41.338 170.8472
0.533076 41.323 170.7788
0.536939 41.307 170.7094
0.540830 41.292 170.6391
0.544749 41.276 170.5677
0.548696 41.260 170.4954
0.552673 41.244 170.4222
0.556677 41.228 170.3480
0.560711 41.212 170.2729
0.564774 41.196 170.1970
0.568867 41.180 170.1201
0.572989 41.163 170.0424
0.577141 41.146 169.9638
0.581324 41.130 169.8844
0.585536 41.113 169.8042
0.589779 41.096 169.7232
0.594053 41.079 169.6415
0.598358 41.061 169.5590
0.602694 41.044 169.4759
0.607061 41.027 169.3921
0.611460 41.009 169.3077
0.615891 40.991 169.2227
0.620354 40.973 169.1371
0.624849 40.955 169.0510
0.629377 40.937 168.9644
0.633938 40.919 168.8774
0.638532 40.901 168.7901
0.643159 40.882 168.7023
0.647819 40.863 168.6143
0.652514 40.845 168.5261
0.657242 40.826 168.4377
0.662005 40.807 168.3492
0.666802 40.787 168.2607
0.671634 40.768 168.1721
0.676501 40.748 168.0837
0.681403 40.729 167.9954
0.686341 40.709 167.9073
0.691314 40.689 167.8196
0.696324 40.669 167.7322
0.701370 40.648 167.6453
0.706452 40.628 167.5589
0.711571 40.606 167.4730
0.716728 40.584 167.3876
0.721921 40.561 167.3026
0.727153 40.536 167.2177
0.732422 40.509 167.1325
0.737729 40.480 167.0467
0.743075 40.449 166.9598
0.748460 40.417 166.8713
0.753883 40.383 166.7810
0.759346 40.349 166.6887
0.764849 40.314 166.5943
0.770391 40.279 166.4976
0.775974 40.243 166.3986
0.781597 40.207 166.2974
0.787261 40.171 166.1940
0.792966 40.135 166.0883
0.798712 40.098 165.9804
0.804500 40.061 165.8703
0.810329 40.024 165.7579
0.816201 39.986 165.6435
0.822116 39.947 165.5269
0.828073 39.908 165.4083
0.834074 39.868 165.2877
0.840118 39.828 165.1650
0.846206 39.787 165.0405
0.852338 39.745 164.9141
0.858514 39.703 164.7859
0.864735 39.659 164.6560
0.871001 39.615 164.5244
0.877313 39.569 164.3913
0.883670 39.523 164.2567
0.890074 39.475 164.1207
0.896524 39.426 163.9835
0.903020 39.375 163.8452
0.909564 39.324 163.7059
0.916155 39.270 163.5657
0.922794 39.216 163.4248
0.929481 39.159 163.2833
0.936216 39.101 163.1415
0.943000 39.041 162.9995
0.949834 38.979 162.8576
0.956717 38.914 162.7159
0.963649 38.848 162.5748
0.970632 38.779 162.4344
0.977666 38.708 162.2950
0.984750 38.635 162.1570
0.991886 38.559 162.0207
0.999074 38.480 161.8864
1.006314 38.398 161.7546
1.013606 38.313 161.6255
1.020951 38.225 161.4998
1.028349 38.134 161.3777
1.035801 38.040 161.2599
1.043307 37.941 161.1468
1.050867 37.839 161.0390
1.058482 37.733 160.9371
1.066152 37.623 160.8416
1.073878 37.508 160.7529
1.081660 37.388 160.6715
1.089498 37.263 160.5974
1.097393 37.131 160.5307
1.105345 36.992 160.4711
1.113355 36.844 160.4181
1.121423 36.689 160.3714
1.129549 36.524 160.3310
1.137734 36.349 160.2967
1.145979 36.166 160.2689
1.154283 35.974 160.2479
1.162647 35.772 160.2341
1.171072 35.563 160.2279
1.179558 35.345 160.2301
1.188106 35.119 160.2414
1.196715 34.887 160.2624
1.205387 34.648 160.2939
1.214122 34.403 160.3370
1.222920 34.152 160.3927
1.231782 33.896 160.4620
1.240708 33.636 160.5463
1.249699 33.372 160.6468
1.258754 33.106 160.7652
1.267876 32.837 160.9032
1.277063 32.567 161.0627
1.286318 32.296 161.2458
1.295639 32.025 161.4548
1.305027 31.755 161.6926
1.314484 31.487 161.9619
1.324009 31.222 162.2662
1.333604 30.962 162.6093
1.343268 30.706 162.9955
1.353002 30.456 163.4294
1.362806 30.213 163.9165
1.372681 29.979 164.4631
1.382628 29.755 165.0759
1.392647 29.542 165.7628
1.402739 29.342 166.5330
1.412904 29.155 167.3965
1.423142 28.983 168.3650
1.433455 28.828 169.4519
1.443843 28.690 170.6727
1.454305 28.569 172.0455
1.464844 28.467 173.5915
1.475459 28.383 175.3355
1.486150 28.315 177.3063
1.496920 28.265 179.5364
1.507767 28.230 -177.9386
1.518693 28.210 -175.0804
1.529698 28.205 -171.8505
1.540783 28.214 -168.2129
1.551948 28.237 -164.1392
1.563194 28.273 -159.6162
1.574521 28.322 -154.6539
1.585931 28.384 -149.2950
1.597423 28.458 -143.6204
1.608999 28.544 -137.7479
1.620658 28.641 -131.8221
1.632402 28.748 -125.9961
1.644232 28.866 -120.4097
1.656146 28.993 -115.1732
1.668147 29.129 -110.3584
1.680235 29.273 -106.0002
1.692411 29.425 -102.1029
1.704675 29.584 -98.6491
1.717028 29.749 -95.6088
1.729470 29.920 -92.9456
1.742003 30.095 -90.6214
1.754626 30.275 -88.5992
1.767341 30.459 -86.8448
1.780147 30.646 -85.3271
1.793047 30.836 -84.0181
1.806040 31.031 -82.8930
1.819128 31.232 -81.9297
1.832310 31.439 -81.1084
1.845587 31.656 -80.4113
1.858961 31.885 -79.8232
1.872432 32.126 -79.3311
1.886001 32.380 -78.9238
1.899667 32.647 -78.5920
1.913433 32.926 -78.3277
1.927299 33.217 -78.1237
1.941265 33.518 -77.9742
1.955332 33.828 -77.8734
1.969501 34.146 -77.8168
1.983773 34.469 -77.8002
1.998148 34.798 -77.8197
2.012627 35.128 -77.8722
2.027212 35.461 -77.9547
2.041902 35.792 -78.0649
2.056698 36.121 -78.2004
2.071602 36.446 -78.3595
2.086614 36.766 -78.5406
2.101734 37.077 -78.7423
2.116964 37.379 -78.9639
2.132304 37.670 -79.2047
2.147756 37.948 -79.4645
2.163320 38.213 -79.7438
2.178996 38.464 -80.0435
2.194786 38.700 -80.3651
2.210690 38.924 -80.7099
2.226710 39.135 -81.0793
2.242845 39.334 -81.4734
2.259098 39.523 -81.8914
2.275468 39.702 -82.3318
2.291957 39.872 -82.7924
2.308566 40.033 -83.2708
2.325295 40.186 -83.7646
2.342145 40.332 -84.2714
2.359117 40.470 -84.7887
2.376212 40.601 -85.3143
2.393431 40.726 -85.8462
2.410775 40.845 -86.3824
2.428244 40.959 -86.9211
2.445840 41.069 -87.4608
2.463564 41.174 -88.0005
2.481416 41.275 -88.5391
2.499397 41.374 -89.0767
2.517509 41.469 -89.6137
2.535752 41.562 -90.1521
2.554127 41.652 -90.6948
2.572635 41.738 -91.2458
2.591277 41.820 -91.8096
2.610055 41.898 -92.3892
2.628968 41.971 -92.9865
2.648019 42.039 -93.6014
2.667208 42.101 -94.2329
2.686535 42.157 -94.8788
2.706003 42.208 -95.5363
2.725612 42.253 -96.2025
2.745363 42.292 -96.8741
2.765257 42.325 -97.5476
2.785295 42.353 -98.2197
2.805478 42.375 -98.8871
2.825808 42.391 -99.5467
2.846285 42.401 -100.1959
2.866910 42.406 -100.8331
2.887685 42.406 -101.4578
2.908611 42.399 -102.0713
2.929688 42.387 -102.6770
2.950917 42.370 -103.2797
2.972301 42.346 -103.8843
2.993839 42.316 -104.4947
3.015534 42.280 -105.1124
3.037386 42.237 -105.7374
3.059396 42.187 -106.3680
3.081565 42.130 -107.0013
3.103896 42.065 -107.6332
3.126388 41.992 -108.2592
3.149043 41.910 -108.8740
3.171862 41.819 -109.4719
3.194847 41.719 -110.0471
3.217998 41.609 -110.5938
3.241317 41.488 -111.1069
3.264805 41.356 -111.5829
3.288463 41.212 -112.0200
3.312293 41.055 -112.4185
3.336295 40.886 -112.7802
3.360471 40.704 -113.1061
3.384822 40.509 -113.3961
3.409350 40.301 -113.6479
3.434056 40.081 -113.8574
3.458940 39.850 -114.0181
3.484005 39.609 -114.1219
3.509252 39.359 -114.1589
3.534681 39.100 -114.1168
3.560295 38.834 -113.9817
3.586094 38.560 -113.7375
3.612081 38.278 -113.3662
3.638255 37.986 -112.8477
3.664620 37.683 -112.1599
3.691175 37.364 -111.2789
3.717923 37.028 -110.1795
3.744864 36.674 -108.8344
3.772001 36.307 -107.2152
3.799335 35.930 -105.2932
3.826866 35.552 -103.0407
3.854597 35.182 -100.4340
3.882529 34.833 -97.4568
3.910664 34.517 -94.1057
3.939002 34.249 -90.3942
3.967546 34.043 -86.3575
3.996296 33.912 -82.0526
4.025255 33.865 -77.5560
4.054423 33.908 -72.9597
4.083804 34.040 -68.3666
4.113396 34.252 -63.8841
4.143204 34.535 -59.6132
4.173227 34.875 -55.6373
4.203468 35.257 -52.0149
4.233928 35.667 -48.7776
4.264609 36.092 -45.9336
4.295512 36.521 -43.4732
4.326639 36.945 -41.3749
4.357992 37.361 -39.6102
4.389572 37.765 -38.1472
4.421380 38.161 -36.9534
4.453419 38.549 -35.9965
4.485691 38.932 -35.2461
4.518196 39.310 -34.6739
4.550936 39.682 -34.2543
4.583914 40.047 -33.9644
4.617131 40.401 -33.7847
4.650589 40.743 -33.6991
4.684289 41.070 -33.6950
4.718233 41.379 -33.7638
4.752424 41.670 -33.8997
4.786862 41.942 -34.0996
4.821549 42.196 -34.3597
4.856488 42.432 -34.6746
4.891680 42.651 -35.0358
4.927127 42.855 -35.4332
4.962831 43.046 -35.8559
4.998794 43.224 -36.2934
5.035017 43.390 -36.7369
5.071503 43.546 -37.1804
5.108253 43.691 -37.6208
5.145270 43.826 -38.0585
5.182555 43.950 -38.4950
5.220110 44.064 -38.9309
5.257937 44.166 -39.3647
5.296038 44.259 -39.7919
5.334415 44.343 -40.2065
5.373071 44.419 -40.6017
5.412006 44.488 -40.9708
5.451224 44.551 -41.3087
5.490725 44.607 -41.6125
5.530514 44.658 -41.8814
5.570590 44.703 -42.1162
5.610957 44.742 -42.3178
5.651616 44.776 -42.4867
5.692570 44.807 -42.6223
5.733821 44.835 -42.7236
5.775370 44.861 -42.7887
5.817221 44.887 -42.8158
5.859375 44.914 -42.8035
5.901834 44.941 -42.7511
5.944602 44.969 -42.6599
5.987679 44.998 -42.5329
6.031068 45.029 -42.3745
6.074771 45.062 -42.1904
6.118792 45.099 -41.9862
6.163131 45.139 -41.7670
6.207792 45.185 -41.5366
6.252776 45.235 -41.2974
6.298086 45.290 -41.0518
6.343725 45.351 -40.8032
6.389694 45.416 -40.5563
6.435996 45.485 -40.3176
6.482634 45.558 -40.0939
6.529610 45.634 -39.8912
6.576926 45.713 -39.7141
6.624585 45.795 -39.5654
6.672590 45.880 -39.4460
6.720942 45.967 -39.3564
6.769645 46.055 -39.2972
6.818700 46.144 -39.2691
6.868111 46.232 -39.2731
6.917881 46.320 -39.3101
6.968010 46.405 -39.3804
7.018504 46.488 -39.4835
7.069362 46.569 -39.6176
7.120590 46.647 -39.7796
7.172189 46.722 -39.9659
7.224161 46.793 -40.1727
7.276511 46.861 -40.3969
7.329239 46.924 -40.6359
7.382350 46.983 -40.8880
7.435845 47.037 -41.1509
7.489729 47.088 -41.4217
7.544002 47.134 -41.6964
7.598669 47.177 -41.9709
7.653732 47.216 -42.2413
7.709194 47.252 -42.5051
7.765058 47.285 -42.7605
7.821327 47.315 -43.0065
7.878004 47.343 -43.2419
7.935091 47.370 -43.4652
7.992592 47.395 -43.6751
8.050510 47.420 -43.8704
8.108847 47.445 -44.0507
8.167607 47.471 -44.2164
8.226793 47.497 -44.3688
8.286408 47.524 -44.5096
8.346454 47.553 -44.6409
8.406936 47.585 -44.7644
8.467856 47.618 -44.8817
8.529218 47.654 -44.9944
8.591024 47.693 -45.1047
8.653278 47.735 -45.2154
8.715983 47.779 -45.3290
8.779143 47.826 -45.4482
8.842760 47.875 -45.5745
8.906839 47.928 -45.7093
8.971381 47.982 -45.8536
9.036392 48.039 -46.0086
9.101873 48.098 -46.1752
9.167829 48.159 -46.3542
9.234263 48.221 -46.5458
9.301178 48.286 -46.7503
9.368578 48.352 -46.9675
9.436467 48.419 -47.1973
9.504847 48.488 -47.4396
9.573723 48.558 -47.6945
9.643099 48.630 -47.9624
9.712976 48.702 -48.2439
9.783361 48.774 -48.5398
9.854255 48.846 -48.8511
9.925663 48.917 -49.1788
9.997588 48.987 -49.5243
10.070035 49.054 -49.8892
10.143007 49.119 -50.2756
10.216507 49.181 -50.6855
10.290540 49.240 -51.1206
10.365109 49.296 -51.5821
10.440219 49.353 -52.0706
10.515873 49.411 -52.5869
10.592076 49.474 -53.1312
10.668830 49.541 -53.7029
10.746141 49.611 -54.3005
10.824012 49.680 -54.9209
10.902447 49.745 -55.5603
10.981451 49.801 -56.2145
11.061027 49.848 -56.8787
11.141180 49.884 -57.5469
11.221913 49.912 -58.2116
11.303232 49.934 -58.8647
11.385140 49.954 -59.4980
11.467641 49.971 -60.1039
11.550741 49.988 -60.6746
11.634442 50.003 -61.2017
11.718750 50.019 -61.6775
11.803669 50.033 -62.0963
11.889203 50.047 -62.4545
11.975357 50.060 -62.7506
12.062136 50.073 -62.9851
12.149543 50.088 -63.1611
12.237583 50.108 -63.2856
12.326262 50.138 -63.3695
12.415583 50.184 -63.4263
12.505552 50.248 -63.4713
12.596172 50.333 -63.5212
12.687449 50.436 -63.5945
12.779387 50.554 -63.7096
12.871992 50.684 -63.8829
12.965268 50.821 -64.1277
13.059220 50.964 -64.4545
13.153852 51.108 -64.8708
13.249170 51.252 -65.3800
13.345179 51.394 -65.9809
13.441884 51.531 -66.6683
13.539289 51.661 -67.4339
13.637401 51.781 -68.2669
13.736223 51.889 -69.1536
13.835761 51.981 -70.0774
13.936021 52.054 -71.0204
14.037007 52.107 -71.9646
14.138725 52.142 -72.8906
14.241180 52.162 -73.7783
14.344377 52.169 -74.6086
14.448323 52.167 -75.3640
14.553021 52.157 -76.0289
14.658478 52.140 -76.5896
14.764700 52.121 -77.0364
14.871691 52.099 -77.3645
14.979457 52.080 -77.5741
15.088005 52.065 -77.6704
15.197339 52.060 -77.6645
15.307465 52.067 -77.5733
15.418389 52.091 -77.4176
15.530117 52.131 -77.2205
15.642655 52.189 -77.0062
15.756008 52.261 -76.7982
15.870182 52.346 -76.6168
15.985184 52.443 -76.4777
16.101019 52.548 -76.3917
16.217694 52.660 -76.3644
16.335214 52.777 -76.3960
16.453586 52.894 -76.4824
16.572815 53.011 -76.6161
16.692909 53.123 -76.7879
16.813872 53.230 -76.9869
16.935713 53.331 -77.2028
17.058436 53.428 -77.4261
17.182048 53.522 -77.6493
17.306556 53.615 -77.8668
17.431967 53.708 -78.0756
17.558286 53.801 -78.2753
17.685521 53.894 -78.4671
17.813677 53.987 -78.6540
17.942762 54.081 -78.8400
18.072783 54.175 -79.0292
18.203746 54.270 -79.2252
18.335658 54.366 -79.4310
18.468526 54.462 -79.6482
18.602356 54.556 -79.8774
18.737156 54.649 -80.1182
18.872934 54.739 -80.3693
19.009695 54.826 -80.6292
19.147447 54.911 -80.8963
19.286197 54.994 -81.1694
19.425953 55.075 -81.4480
19.566721 55.154 -81.7317
19.708510 55.229 -82.0206
19.851326 55.300 -82.3144
19.995177 55.366 -82.6125
20.140070 55.429 -82.9127
20.286013 55.487 -83.2117
20.433014 55.541 -83.5044
20.581080 55.590 -83.7841
20.730219 55.633 -84.0436
20.880439 55.670 -84.2752
21.031747 55.703 -84.4722
21.184152 55.734 -84.6302
21.337661 55.767 -84.7483
21.492282 55.803 -84.8297
21.648024 55.846 -84.8823
21.804895 55.896 -84.9184
21.962902 55.956 -84.9533
22.122054 56.025 -85.0038
22.282360 56.102 -85.0857
22.443827 56.184 -85.2117
22.606464 56.266 -85.3893
22.770280 56.344 -85.6199
22.935283 56.414 -85.8984
23.101481 56.476 -86.2139
23.268884 56.531 -86.5515
23.437500 56.579 -86.8938
23.607338 56.624 -87.2242
23.778406 56.665 -87.5281
23.950714 56.705 -87.7960
24.124271 56.747 -88.0239
24.299086 56.792 -88.2141
24.475167 56.843 -88.3740
24.652524 56.900 -88.5144
24.831166 56.961 -88.6471
25.011103 57.026 -88.7824
25.192344 57.094 -88.9269
25.374898 57.164 -89.0828
25.558775 57.235 -89.2479
25.743984 57.308 -89.4169
25.930536 57.380 -89.5839
26.118439 57.455 -89.7440
26.307704 57.531 -89.8956
26.498341 57.611 -90.0417
26.690359 57.696 -90.1894
26.883768 57.784 -90.3489
27.078579 57.875 -90.5307
27.274801 57.968 -90.7437
27.472446 58.060 -90.9921
27.671522 58.149 -91.2749
27.872042 58.234 -91.5850
28.074014 58.312 -91.9111
28.277450 58.383 -92.2396
28.482360 58.448 -92.5569
28.688755 58.508 -92.8524
28.896645 58.563 -93.1200
29.106042 58.616 -93.3588
29.316957 58.669 -93.5733
29.529400 58.721 -93.7713
29.743382 58.775 -93.9621
29.958915 58.829 -94.1544
30.176009 58.884 -94.3544
30.394677 58.938 -94.5646
30.614929 58.992 -94.7837
30.836778 59.043 -95.0074
31.060234 59.092 -95.2290
31.285309 59.138 -95.4412
31.512015 59.183 -95.6372
31.740364 59.226 -95.8125
31.970368 59.271 -95.9655
32.202039 59.318 -96.0990
32.435388 59.371 -96.2202
32.670428 59.429 -96.3401
32.907171 59.494 -96.4724
33.145630 59.565 -96.6304
33.385817 59.640 -96.8248
33.627745 59.716 -97.0604
33.871425 59.790 -97.3352
34.116871 59.861 -97.6400
34.364096 59.927 -97.9603
34.613113 59.986 -98.2797
34.863934 60.040 -98.5828
35.116572 60.091 -98.8587
35.371041 60.141 -99.1027
35.627354 60.191 -99.3155
35.885525 60.243 -99.5025
36.145566 60.299 -99.6709
36.407492 60.358 -99.8278
36.671316 60.420 -99.9796
36.937051 60.487 -100.1318
37.204712 60.558 -100.2901
37.474313 60.633 -100.4608
37.745867 60.710 -100.6499
38.019389 60.789 -100.8623
38.294893 60.868 -101.1003
38.572394 60.945 -101.3627
38.851905 61.018 -101.6454
39.133442 61.087 -101.9428
39.417019 61.151 -102.2497
39.702651 61.210 -102.5620
39.990353 61.266 -102.8759
40.280140 61.317 -103.1868
40.572026 61.365 -103.4883
40.866028 61.412 -103.7728
41.162160 61.458 -104.0351
41.460438 61.506 -104.2751
41.760877 61.557 -104.5013
42.063494 61.614 -104.7293
42.368303 61.675 -104.9773
42.675322 61.738 -105.2591
42.984565 61.800 -105.5779
43.296048 61.859 -105.9248
43.609789 61.911 -106.2812
43.925804 61.956 -106.6264
44.244108 61.998 -106.9451
44.564719 62.039 -107.2334
44.887654 62.082 -107.5000
45.212928 62.129 -107.7624
45.540560 62.178 -108.0406
45.870565 62.227 -108.3495
46.202962 62.274 -108.6929
46.537768 62.314 -109.0598
46.875000 62.345 -109.4247
47.214676 62.370 -109.7528
47.556813 62.391 -110.0093
47.901429 62.417 -110.1722
48.248542 62.455 -110.2441
48.598171 62.513 -110.2574
48.950334 62.592 -110.2677
49.305048 62.689 -110.3372
49.662333 62.795 -110.5131
50.022206 62.900 -110.8123
50.384688 62.994 -111.2185
50.749796 63.073 -111.6902
51.117550 63.136 -112.1776
51.487969 63.189 -112.6378
51.861072 63.236 -113.0470
52.236879 63.282 -113.4034
52.615409 63.331 -113.7218
52.996681 63.384 -114.0234
53.380717 63.438 -114.3256
53.767536 63.492 -114.6362
54.157158 63.544 -114.9540
54.549603 63.593 -115.2736
54.944892 63.639 -115.5901
55.343045 63.682 -115.9013
55.744084 63.724 -116.2074
56.148028 63.766 -116.5098
56.554900 63.810 -116.8115
56.964720 63.856 -117.1176
57.377510 63.904 -117.4355
57.793291 63.952 -117.7713
58.212085 63.998 -118.1256
58.633914 64.042 -118.4911
59.058799 64.084 -118.8551
59.486764 64.126 -119.2049
59.917829 64.169 -119.5334
60.352019 64.214 -119.8412
60.789354 64.261 -120.1354
61.229859 64.309 -120.4255
61.673556 64.357 -120.7203
62.120468 64.405 -121.0253
62.570618 64.452 -121.3424
63.024031 64.499 -121.6704
63.480729 64.547 -122.0072
63.940736 64.594 -122.3522
64.404077 64.639 -122.7070
64.870776 64.682 -123.0734
65.340856 64.721 -123.4508
65.814343 64.756 -123.8340
66.291261 64.790 -124.2148
66.771635 64.824 -124.5859
67.255489 64.862 -124.9449
67.742850 64.905 -125.2948
68.233743 64.951 -125.6414
68.728193 65.000 -125.9884
69.226226 65.048 -126.3356
69.727867 65.094 -126.6802
70.233144 65.137 -127.0210
70.742083 65.177 -127.3607
71.254709 65.215 -127.7050
71.771050 65.250 -128.0579
72.291132 65.282 -128.4183
72.814984 65.314 -128.7808
73.342631 65.347 -129.1403
73.874102 65.382 -129.4970
74.409424 65.421 -129.8563
74.948626 65.462 -130.2247
75.491734 65.504 -130.6043
76.038779 65.545 -130.9913
76.589787 65.585 -131.3795
77.144788 65.625 -131.7646
77.703811 65.663 -132.1466
78.266885 65.700 -132.5270
78.834039 65.735 -132.9043
79.405303 65.767 -133.2739
79.980706 65.797 -133.6296
80.560280 65.824 -133.9677
81.144053 65.851 -134.2896
81.732056 65.879 -134.6046
82.324320 65.908 -134.9270
82.920876 65.937 -135.2690
83.521755 65.966 -135.6328
84.126988 65.992 -136.0098
84.736607 66.016 -136.3898
85.350643 66.039 -136.7684
85.969129 66.063 -137.1485
86.592097 66.086 -137.5345
87.219579 66.109 -137.9275
87.851608 66.130 -138.3249
88.488217 66.149 -138.7211
89.129439 66.166 -139.1094
89.775308 66.181 -139.4850
90.425856 66.196 -139.8480
91.081119 66.211 -140.2026
91.741131 66.227 -140.5535
92.405925 66.243 -140.9026
93.075536 66.260 -141.2513
93.750000 66.278 -141.6025
94.429351 66.297 -141.9588
95.113625 66.315 -142.3193
95.802858 66.333 -142.6805
96.497085 66.350 -143.0380
97.196342 66.365 -143.3892
97.900667 66.380 -143.7332
98.610096 66.396 -144.0704
99.324665 66.411 -144.4001
100.044413 66.427 -144.7207
100.769376 66.444 -145.0323
101.499592 66.462 -145.3387
102.235100 66.480 -145.6461
102.975938 66.497 -145.9600
103.722144 66.511 -146.2851
104.473757 66.524 -146.6245
105.230817 66.533 -146.9798
105.993363 66.540 -147.3486
106.761435 66.545 -147.7250
107.535072 66.549 -148.1014
108.314315 66.553 -148.4699
109.099206 66.560 -148.8240
109.889783 66.567 -149.1606
110.686090 66.576 -149.4800
111.488167 66.585 -149.7855
112.296056 66.594 -150.0825
113.109800 66.603 -150.3772
113.929440 66.614 -150.6755
114.755020 66.626 -150.9812
115.586582 66.641 -151.2952
116.424170 66.657 -151.6162
117.267827 66.674 -151.9427
118.117598 66.689 -152.2723
118.973527 66.699 -152.6010
119.835658 66.705 -152.9229
120.704037 66.707 -153.2334
121.578708 66.707 -153.5323
122.459718 66.706 -153.8252
123.347111 66.706 -154.1188
124.240935 66.706 -154.4149
125.141236 66.706 -154.7099
126.048061 66.706 -154.9993
126.961458 66.707 -155.2814
127.881473 66.710 -155.5582
128.808154 66.711 -155.8312
129.741551 66.711 -156.0995
130.681712 66.709 -156.3625
131.628686 66.705 -156.6225
132.582521 66.700 -156.8822
133.543269 66.695 -157.1434
134.510979 66.690 -157.4072
135.485701 66.687 -157.6741
136.467486 66.684 -157.9443
137.456386 66.682 -158.2167
138.452451 66.680 -158.4891
139.455735 66.677 -158.7590
140.466288 66.673 -159.0233
141.484165 66.667 -159.2791
142.509418 66.662 -159.5247
143.542100 66.656 -159.7590
144.582265 66.650 -159.9814
145.629968 66.644 -160.1928
146.685262 66.640 -160.3979
147.748204 66.637 -160.6069
148.818849 66.634 -160.8301
149.897251 66.632 -161.0707
150.983469 66.631 -161.3246
152.077557 66.631 -161.5861
153.179574 66.632 -161.8504
154.289576 66.635 -162.1130
155.407622 66.639 -162.3690
156.533770 66.644 -162.6142
157.668078 66.648 -162.8464
158.810606 66.650 -163.0670
159.961413 66.651 -163.2791
161.120559 66.649 -163.4860
162.288105 66.646 -163.6893
163.464112 66.642 -163.8895
164.648640 66.638 -164.0864
165.841752 66.632 -164.2787
167.043510 66.625 -164.4651
168.253976 66.617 -164.6451
169.473213 66.607 -164.8214
170.701286 66.595 -164.9980
171.938258 66.579 -165.1791
173.184194 66.561 -165.3654
174.439158 66.538 -165.5547
175.703216 66.513 -165.7435
176.976434 66.485 -165.9292
178.258878 66.457 -166.1114
179.550615 66.429 -166.2901
180.851713 66.403 -166.4648
182.162239 66.381 -166.6348
183.482262 66.365 -166.8007
184.811850 66.354 -166.9638
186.151073 66.349 -167.1248
187.500000 66.349 -167.2833
188.858702 66.353 -167.4385
190.227250 66.359 -167.5906
191.605715 66.366 -167.7413
192.994169 66.372 -167.8923
194.392685 66.378 -168.0446
195.801334 66.381 -168.1993
197.220191 66.383 -168.3574
198.649330 66.382 -168.5189
200.088825 66.378 -168.6806
201.538751 66.371 -168.8377
202.999184 66.362 -168.9869
204.470200 66.352 -169.1277
205.951875 66.340 -169.2618
207.444287 66.328 -169.3922
208.947514 66.316 -169.5211
210.461634 66.303 -169.6475
211.986726 66.291 -169.7688
213.522869 66.280 -169.8830
215.070144 66.270 -169.9906
216.628631 66.260 -170.0945
218.198411 66.250 -170.1985
219.779567 66.239 -170.3057
221.372180 66.226 -170.4163
222.976334 66.214 -170.5278
224.592112 66.201 -170.6367
226.219600 66.188 -170.7416
227.858880 66.175 -170.8428
229.510039 66.162 -170.9415
231.173164 66.148 -171.0375
232.848340 66.135 -171.1299
234.535655 66.121 -171.2180
236.235197 66.109 -171.3023
237.947054 66.097 -171.3846
239.671317 66.086 -171.4660
241.408074 66.075 -171.5474
243.157416 66.064 -171.6282
244.919435 66.052 -171.7067
246.694223 66.039 -171.7806
248.481871 66.026 -171.8489
250.282473 66.011 -171.9137
252.096123 65.997 -171.9782
253.922915 65.984 -172.0450
255.762945 65.972 -172.1142
257.616309 65.960 -172.1837
259.483103 65.947 -172.2520
261.363424 65.935 -172.3196
263.257372 65.922 -172.3874
265.165043 65.910 -172.4556
267.086538 65.898 -172.5225
269.021957 65.887 -172.5856
270.971401 65.876 -172.6437
272.934972 65.864 -172.6973
274.912771 65.851 -172.7471
276.904902 65.839 -172.7934
278.911469 65.826 -172.8360
280.932577 65.814 -172.8756
282.968330 65.801 -172.9139
285.018835 65.790 -172.9520
287.084199 65.779 -172.9904
289.164530 65.768 -173.0287
291.259935 65.758 -173.0664
293.370525 65.749 -173.1026
295.496408 65.739 -173.1364
297.637697 65.729 -173.1672
299.794503 65.718 -173.1954
301.966937 65.706 -173.2213
304.155114 65.693 -173.2450
306.359147 65.680 -173.2667
308.579152 65.666 -173.2863
310.815244 65.653 -173.3038
313.067539 65.639 -173.3189
315.336156 65.626 -173.3312
317.621211 65.613 -173.3398
319.922826 65.601 -173.3441
322.241118 65.590 -173.3439
324.576210 65.580 -173.3404
326.928223 65.570 -173.3350
329.297280 65.562 -173.3297
331.683504 65.554 -173.3262
334.087019 65.545 -173.3250
336.507952 65.536 -173.3260
338.946427 65.526 -173.3282
341.402572 65.515 -173.3306
343.876516 65.504 -173.3333
346.368387 65.492 -173.3370
348.878315 65.480 -173.3420
351.406431 65.468 -173.3466
353.952867 65.456 -173.3489
356.517756 65.446 -173.3483
359.101230 65.437 -173.3447
361.703426 65.429 -173.3382
364.324478 65.423 -173.3290
366.964523 65.417 -173.3181
369.623699 65.410 -173.3067
372.302145 65.403 -173.2960
375.000000 65.395 -173.2862
377.717405 65.385 -173.2765
380.454501 65.375 -173.2656
383.211431 65.364 -173.2524
385.988339 65.353 -173.2365
388.785369 65.342 -173.2178
391.602668 65.333 -173.1962
394.440383 65.323 -173.1711
397.298660 65.314 -173.1416
400.177650 65.305 -173.1070
403.077502 65.296 -173.0671
405.998368 65.286 -173.0224
408.940400 65.277 -172.9745
411.903750 65.268 -172.9251
414.888575 65.258 -172.8762
417.895028 65.248 -172.8287
420.923268 65.238 -172.7831
423.973452 65.228 -172.7388
427.045738 65.218 -172.6941
430.140287 65.208 -172.6471
433.257261 65.199 -172.5959
436.396822 65.190 -172.5400
439.559133 65.182 -172.4805
442.744360 65.174 -172.4196
445.952668 65.167 -172.3594
449.184225 65.161 -172.2999
452.439199 65.155 -172.2396
455.717760 65.149 -172.1755
459.020079 65.143 -172.1056
462.346327 65.138 -172.0302
465.696680 65.132 -171.9515
469.071310 65.125 -171.8720
472.470394 65.119 -171.7935
475.894109 65.112 -171.7168
479.342634 65.104 -171.6411
482.816148 65.097 -171.5653
486.314833 65.088 -171.4885
489.838871 65.080 -171.4094
493.388445 65.071 -171.3270
496.963741 65.063 -171.2416
500.564945 65.055 -171.1542
504.192245 65.046 -171.0658
507.845830 65.038 -170.9757
511.525890 65.030 -170.8827
515.232618 65.023 -170.7863
518.966206 65.017 -170.6878
522.726849 65.012 -170.5891
526.514743 65.007 -170.4915
530.330086 65.003 -170.3959
534.173076 64.998 -170.3034
538.043915 64.994 -170.2144
541.942803 64.990 -170.1285
545.869944 64.988 -170.0446
549.825542 64.986 -169.9612
553.809805 64.986 -169.8773
557.822939 64.987 -169.7927
561.865154 64.989 -169.7074
565.936660 64.990 -169.6219
570.037671 64.992 -169.5368
574.168399 64.993 -169.4522
578.329060 64.993 -169.3676
582.519870 64.992 -169.2819
586.741049 64.990 -169.1940
590.992817 64.987 -169.1029
595.275394 64.984 -169.0078
599.589005 64.980 -168.9077
603.933874 64.977 -168.8026
608.310228 64.974 -168.6930
612.718295 64.972 -168.5795
617.158304 64.969 -168.4632
621.630488 64.967 -168.3455
626.135079 64.965 -168.2280
630.672311 64.963 -168.1115
635.242423 64.961 -167.9953
639.845651 64.959 -167.8788
644.482237 64.958 -167.7619
649.152421 64.957 -167.6443
653.856447 64.958 -167.5264
658.594560 64.960 -167.4080
663.367008 64.963 -167.2889
668.174039 64.966 -167.1695
673.015903 64.968 -167.0505
677.892854 64.970 -166.9326
682.805145 64.972 -166.8152
687.753032 64.973 -166.6982
692.736774 64.974 -166.5806
697.756631 64.975 -166.4617
702.812863 64.977 -166.3413
707.905735 64.979 -166.2201
713.035511 64.981 -166.0986
718.202461 64.983 -165.9772
723.406852 64.984 -165.8548
728.648956 64.984 -165.7291
733.929047 64.983 -165.5979
739.247399 64.982 -165.4614
744.604290 64.982 -165.3216
750.000000 64.981 -165.1812
755.434809 64.981 -165.0421
760.909001 64.980 -164.9055
766.422861 64.980 -164.7719
771.976677 64.979 -164.6412
777.570739 64.979 -164.5121
783.205337 64.979 -164.3836
788.880766 64.980 -164.2547
794.597321 64.982 -164.1252
800.355301 64.984 -163.9950
806.155005 64.987 -163.8628
811.996736 64.990 -163.7271
817.880799 64.991 -163.5878
823.807501 64.991 -163.4459
829.777150 64.990 -163.3030
835.790057 64.989 -163.1593
841.846536 64.988 -163.0136
847.946903 64.987 -162.8649
854.091476 64.987 -162.7126
860.280575 64.985 -162.5570
866.514523 64.983 -162.3983
872.793644 64.981 -162.2366
879.118267 64.979 -162.0720
885.488720 64.978 -161.9049
891.905336 64.977 -161.7361
898.368450 64.976 -161.5652
904.878398 64.975 -161.3917
911.435520 64.973 -161.2153
918.040157 64.971 -161.0356
924.692655 64.967 -160.8522
931.393359 64.963 -160.6636
938.142619 64.957 -160.4686
944.940787 64.951 -160.2666
951.788218 64.944 -160.0575
958.685268 64.936 -159.8421
965.632296 64.928 -159.6214
972.629666 64.920 -159.3965
979.677741 64.912 -159.1685
986.776890 64.903 -158.9383
993.927482 64.895 -158.7060
1001.129891 64.887 -158.4705
1008.384491 64.878 -158.2302
1015.691660 64.870 -157.9840
1023.051781 64.862 -157.7321
1030.465236 64.853 -157.4747
1037.932411 64.844 -157.2123
1045.453698 64.834 -156.9446
1053.029486 64.824 -156.6716
1060.660172 64.813 -156.3938
1068.346153 64.803 -156.1118
1076.087829 64.793 -155.8261
1083.885605 64.784 -155.5367
1091.739887 64.777 -155.2430
1099.651084 64.773 -154.9447
1107.619609 64.771 -154.6422
1115.645878 64.773 -154.3358
1123.730308 64.776 -154.0259
1131.873321 64.782 -153.7125
1140.075341 64.790 -153.3957
1148.336797 64.800 -153.0758
1156.658119 64.811 -152.7532
1165.039741 64.825 -152.4288
1173.482099 64.842 -152.1033
1181.985634 64.861 -151.7772
1190.550789 64.883 -151.4501
1199.178011 64.908 -151.1208
1207.867749 64.935 -150.7883
1216.620457 64.964 -150.4527
1225.436590 64.993 -150.1147
1234.316609 65.020 -149.7751
1243.260976 65.045 -149.4348
1252.270157 65.065 -149.0942
1261.344623 65.080 -148.7535
1270.484846 65.091 -148.4129
1279.691303 65.098 -148.0724
1288.964474 65.104 -147.7330
1298.304842 65.109 -147.3953
1307.712894 65.117 -147.0598
1317.189120 65.127 -146.7263
1326.734016 65.141 -146.3947
1336.348077 65.160 -146.0648
1346.031806 65.184 -145.7372
1355.785708 65.212 -145.4123
1365.610290 65.244 -145.0900
1375.506065 65.280 -144.7695
1385.473549 65.318 -144.4505
1395.513261 65.358 -144.1330
1405.625726 65.400 -143.8182
1415.811469 65.443 -143.5078
1426.071023 65.488 -143.2028
1436.404921 65.534 -142.9033
1446.813703 65.581 -142.6083
1457.297912 65.630 -142.3162
1467.858093 65.678 -142.0255
1478.494798 65.728 -141.7355
1489.208581 65.778 -141.4471
1500.000000 65.828 -141.1611
1510.869618 65.880 -140.8786
1521.818002 65.932 -140.5998
1532.845723 65.985 -140.3243
1543.953355 66.038 -140.0519
1555.141477 66.093 -139.7833
1566.410674 66.148 -139.5192
1577.761531 66.203 -139.2603
1589.194642 66.259 -139.0066
1600.710601 66.315 -138.7578
1612.310010 66.371 -138.5132
1623.993473 66.428 -138.2721
1635.761599 66.484 -138.0339
1647.615002 66.541 -137.7986
1659.554299 66.599 -137.5676
1671.580114 66.657 -137.3427
1683.693072 66.717 -137.1254
1695.893807 66.778 -136.9167
1708.182952 66.840 -136.7164
1720.561150 66.903 -136.5242
1733.029045 66.966 -136.3397
1745.587288 67.028 -136.1626
1758.236533 67.091 -135.9936
1770.977440 67.153 -135.8336
1783.810673 67.215 -135.6828
1796.736900 67.277 -135.5410
1809.756796 67.340 -135.4069
1822.871040 67.404 -135.2796
1836.080315 67.467 -135.1586
1849.385310 67.531 -135.0437
1862.786718 67.594 -134.9347
1876.285239 67.656 -134.8317
1889.881575 67.719 -134.7351
1903.576436 67.781 -134.6456
1917.370535 67.843 -134.5640
1931.264593 67.904 -134.4909
1945.259332 67.964 -134.4268
1959.355483 68.023 -134.3715
1973.553781 68.082 -134.3249
1987.854965 68.140 -134.2867
2002.259781 68.198 -134.2569
2016.768981 68.256 -134.2358
2031.383320 68.312 -134.2236
2046.103561 68.368 -134.2204
2060.930471 68.423 -134.2257
2075.864823 68.475 -134.2383
2090.907395 68.527 -134.2567
2106.058972 68.577 -134.2799
2121.320344 68.626 -134.3078
2136.692305 68.674 -134.3409
2152.175658 68.722 -134.3795
2167.771210 68.770 -134.4234
2183.479774 68.816 -134.4724
2199.302169 68.862 -134.5262
2215.239219 68.905 -134.5844
2231.291755 68.946 -134.6461
2247.460615 68.986 -134.7104
2263.746641 69.023 -134.7763
2280.150683 69.059 -134.8430
2296.673595 69.093 -134.9093
2313.316238 69.127 -134.9734
2330.079481 69.159 -135.0341
2346.964198 69.190 -135.0905
2363.971268 69.220 -135.1423
2381.101578 69.248 -135.1896
2398.356022 69.275 -135.2321
2415.735498 69.300 -135.2687
2433.240913 69.323 -135.2982
2450.873180 69.345 -135.3188
2468.633217 69.366 -135.3287
2486.521951 69.386 -135.3269
2504.540314 69.406 -135.3134
2522.689246 69.425 -135.2893
2540.969692 69.445 -135.2559
2559.382606 69.465 -135.2146
2577.928947 69.486 -135.1662
2596.609683 69.506 -135.1115
2615.425787 69.526 -135.0515
2634.378241 69.547 -134.9865
2653.468031 69.567 -134.9166
2672.696154 69.586 -134.8409
2692.063613 69.605 -134.7581
2711.571415 69.624 -134.6660
2731.220579 69.644 -134.5621
2751.012130 69.663 -134.4448
2770.947098 69.685 -134.3140
2791.026522 69.707 -134.1709
2811.251451 69.732 -134.0178
2831.622938 69.758 -133.8569
2852.142045 69.785 -133.6902
2872.809842 69.815 -133.5188
2893.627406 69.847 -133.3428
2914.595823 69.882 -133.1629
2935.716186 69.919 -132.9808
2956.989596 69.959 -132.7993
2978.417161 70.002 -132.6231
3000.000000 70.047 -132.4580
3021.739237 70.095 -132.3096
3043.636005 70.145 -132.1822
3065.691446 70.196 -132.0797
3087.906710 70.246 -132.0055
3110.282955 70.296 -131.9634
3132.821347 70.342 -131.9562
3155.523062 70.384 -131.9828
3178.389283 70.418 -132.0349
3201.421202 70.440 -132.0923
3224.620020 70.451 -132.1224
3247.986946 70.449 -132.0797
3271.523198 70.440 -131.9130
3295.230004 70.431 -131.5804
3319.108599 70.436 -131.0743
3343.160228 70.465 -130.4389
3367.386145 70.527 -129.7637
3391.787613 70.619 -129.1493
3416.365904 70.734 -128.6697
3441.122300 70.861 -128.3537
3466.058091 70.991 -128.1915
3491.174576 71.118 -128.1539
3516.473066 71.241 -128.2089
3541.954880 71.357 -128.3306
3567.621345 71.468 -128.5005
3593.473800 71.574 -128.7065
3619.513592 71.675 -128.9404
3645.742080 71.774 -129.1964
3672.160630 71.870 -129.4719
3698.770620 71.964 -129.7678
3725.573436 72.057 -130.0869
3752.570477 72.148 -130.4319
3779.763150 72.238 -130.8045
3807.152872 72.325 -131.2061
3834.741071 72.409 -131.6375
3862.529185 72.488 -132.0984
3890.518664 72.563 -132.5886
3918.710966 72.631 -133.1060
3947.107561 72.691 -133.6465
3975.709929 72.744 -134.2057
4004.519563 72.789 -134.7793
4033.537962 72.825 -135.3619
4062.766641 72.852 -135.9465
4092.207123 72.870 -136.5247
4121.860942 72.880 -137.0898
4151.729646 72.884 -137.6391
4181.814790 72.881 -138.1733
4212.117944 72.874 -138.6935
4242.640687 72.861 -139.1992
4273.384610 72.843 -139.6882
4304.351317 72.818 -140.1570
4335.542421 72.787 -140.6012
4366.959549 72.751 -141.0159
4398.604338 72.709 -141.3961
4430.478438 72.663 -141.7368
4462.583511 72.614 -142.0343
4494.921231 72.564 -142.2889
4527.493283 72.514 -142.5052
4560.301365 72.464 -142.6901
4593.347189 72.415 -142.8504
4626.632476 72.367 -142.9914
4660.158962 72.319 -143.1152
4693.928395 72.270 -143.2209
4727.942535 72.221 -143.3054
4762.203156 72.171 -143.3650
4796.712043 72.121 -143.3962
4831.470996 72.072 -143.3971
4866.481826 72.023 -143.3675
4901.746360 71.975 -143.3083
4937.266434 71.929 -143.2203
4973.043902 71.885 -143.1045
5009.080628 71.843 -142.9614
5045.378492 71.803 -142.7919
5081.939384 71.766 -142.5969
5118.765212 71.732 -142.3777
5155.857894 71.701 -142.1367
5193.219366 71.673 -141.8770
5230.851574 71.651 -141.6022
5268.756481 71.633 -141.3158
5306.936062 71.621 -141.0222
5345.392309 71.616 -140.7251
5384.127225 71.617 -140.4270
5423.142830 71.624 -140.1287
5462.441159 71.639 -139.8303
5502.024259 71.661 -139.5321
5541.894195 71.692 -139.2364
5582.053045 71.731 -138.9475
5622.502902 71.779 -138.6726
5663.245876 71.836 -138.4206
5704.284090 71.903 -138.2020
5745.619684 71.979 -138.0273
5787.254813 72.062 -137.9058
5829.191647 72.152 -137.8431
5871.432373 72.248 -137.8422
5913.979192 72.347 -137.9031
5956.834323 72.450 -138.0253
6000.000000 72.557 -138.2096
6043.478473 72.668 -138.4590
6087.272010 72.784 -138.7791
6131.382892 72.905 -139.1789
6175.813420 73.031 -139.6701
6220.565910 73.161 -140.2650
6265.642695 73.293 -140.9746
6311.046124 73.425 -141.8093
6356.778566 73.555 -142.7763
6402.842404 73.679 -143.8782
6449.240040 73.794 -145.1147
6495.973891 73.897 -146.4828
6543.046396 73.984 -147.9741
6590.460007 74.052 -149.5747
6638.217197 74.099 -151.2670
6686.320456 74.122 -153.0320
6734.772290 74.122 -154.8494
6783.575226 74.097 -156.6993
6832.731809 74.046 -158.5623
6882.244600 73.971 -160.4196
6932.116181 73.872 -162.2526
6982.349153 73.750 -164.0436
7032.946133 73.608 -165.7768
7083.909760 73.447 -167.4387
7135.242690 73.272 -169.0216
7186.947600 73.086 -170.5241
7239.027185 72.891 -171.9499
7291.484160 72.690 -173.3045
7344.321260 72.482 -174.5919
7397.541239 72.268 -175.8107
7451.146872 72.046 -176.9526
7505.140954 71.815 -178.0030
7559.526299 71.576 -178.9433
7614.305743 71.327 -179.7524
7669.482141 71.068 179.5915
7725.058371 70.800 179.1105
7781.037328 70.520 178.8265
7837.421932 70.231 178.7618
7894.215122 69.933 178.9380
7951.419859 69.629 179.3727
8009.039125 69.325 -179.9264
8067.075924 69.030 -178.9673
8125.533282 68.752 -177.7787
8184.414245 68.500 -176.4128
8243.721885 68.284 -174.9426
8303.459292 68.109 -173.4525
8363.629581 67.978 -172.0255
8424.235888 67.889 -170.7324
8485.281374 67.838 -169.6239
8546.769221 67.818 -168.7285
8608.702634 67.822 -168.0552
8671.084842 67.841 -167.5989
8733.919097 67.870 -167.3444
8797.208675 67.903 -167.2703
8860.956876 67.934 -167.3517
8925.167022 67.957 -167.5629
8989.842461 67.969 -167.8790
9054.986566 67.969 -168.2783
9120.602731 67.954 -168.7421
9186.694378 67.926 -169.2538
9253.264952 67.884 -169.7974
9320.317925 67.828 -170.3558
9387.856790 67.758 -170.9106
9455.885071 67.672 -171.4422
9524.406312 67.573 -171.9288
9593.424086 67.461 -172.3450
9662.941992 67.340 -172.6628
9732.963653 67.214 -172.8526
9803.492719 67.088 -172.8888
9874.532869 66.970 -172.7563
9946.087805 66.869 -172.4572
10018.161257 66.791 -172.0138
10090.756983 66.743 -171.4679
10163.878768 66.728 -170.8720
10237.530423 66.747 -170.2809
10311.715789 66.800 -169.7427
10386.438732 66.886 -169.2956
10461.703149 67.001 -168.9684
10537.512962 67.143 -168.7831
10613.872125 67.310 -168.7576
10690.784618 67.497 -168.9074
10768.254450 67.704 -169.2468
10846.285661 67.929 -169.7894
10924.882318 68.169 -170.5480
11004.048518 68.421 -171.5340
11083.788390 68.683 -172.7570
11164.106090 68.950 -174.2239
11245.005805 69.216 -175.9376
11326.491752 69.478 -177.8959
11408.568180 69.730 179.9097
11491.239368 69.968 177.4939
11574.509626 70.189 174.8759
11658.383294 70.391 172.0774
11742.864745 70.576 169.1184
11827.958384 70.746 166.0141
11913.668646 70.903 162.7717
12000.000000 71.051 159.3875
12086.956947 71.191 155.8477
12174.544019 71.324 152.1323
12262.765784 71.446 148.2199
12351.626840 71.552 144.0940
12441.131819 71.632 139.7482
12531.285389 71.677 135.1916
12622.092249 71.678 130.4509
12713.557132 71.625 125.5715
12805.684808 71.515 120.6138
12898.480079 71.345 115.6463
12991.947783 71.117 110.7364
13086.092792 70.833 105.9427
13180.920015 70.499 101.3089
13276.434395 70.121 96.8612
13372.640911 69.707 92.6067
13469.544580 69.267 88.5345
13567.150452 68.813 84.6189
13665.463617 68.357 80.8247
13764.489200 67.911 77.1135
13864.232362 67.489 73.4463
13964.698305 67.098 69.7866
14065.892266 66.747 66.1007
14167.819519 66.438 62.3586
14270.485380 66.171 58.5335
14373.895200 65.940 54.6026
14478.054370 65.740 50.5458
14582.968320 65.566 46.3445
14688.642520 65.412 41.9810
14795.082478 65.274 37.4381
14902.293745 65.150 32.6983
15010.281908 65.039 27.7428
15119.052599 64.940 22.5511
15228.611486 64.855 17.1028
15338.964283 64.784 11.3795
15450.116741 64.728 5.3673
15562.074656 64.684 -0.9423
15674.843864 64.649 -7.5512
15788.430244 64.615 -14.4530
15902.839718 64.570 -21.6332
16018.078250 64.502 -29.0707
16134.151848 64.404 -36.7399
16251.066563 64.271 -44.6145
16368.828491 64.102 -52.6711
16487.443769 63.901 -60.8933
16606.918584 63.673 -69.2731
16727.259161 63.425 -77.8125
16848.471777 63.163 -86.5237
16970.562748 62.894 -95.4289
17093.538442 62.625 -104.5590
17217.405268 62.360 -113.9491
17342.169684 62.101 -123.6359
17467.838194 61.848 -133.6528
17594.417350 61.602 -144.0297
17721.913751 61.363 -154.7946
17850.334044 61.133 -165.9763
17979.684923 60.918 -177.6089
18109.973131 60.721 170.2628
18241.205462 60.543 157.5804
18373.388756 60.379 144.2794
18506.529905 60.219 130.3026
18640.635849 60.047 115.6032
18775.713581 59.851 100.1366
18911.770141 59.616 83.8440
19048.812624 59.333 66.6379
19186.848172 58.991 48.4017
19325.883983 58.583 29.0508
19465.927305 58.109 8.7679
19606.985439 57.586 -11.5454
19749.065738 57.060 -29.9398
19892.175609 56.616 -43.9103
20036.322514 56.358 -51.4233
