* Measurement data measured by REW V5.20.9
* Source: Input device not selected, no input selected, L, volume: no control. Timing signal peak level -16,9 dBFS, measurement signal peak level -9,3 dBFS
* Format: 256k Log Swept Sine, 1 sweep at -12,0 dBFS using an acoustic timing reference
* Dated: 07.08.2023 19:08:27
* REW Settings:
*  C-weighting compensation: Off
*  Target level: 75.0 dB
* Note: Delay -0,0216 ms (-7,4 mm, -0,29 in) using estimated IR delay relative to Acoustic reference on  R with no timing offset
* Measurement: EPZ Q5
* Smoothing: 1/6 octave
* Frequency Step: 96 ppo
* Start Frequency: 20.187378 Hz
*
* Freq(Hz) SPL(dB) Phase(degrees)
20.187378 111.214 -118.5839
20.333664 111.226 -118.7540
20.481010 111.243 -118.9818
20.629424 111.263 -119.2606
20.778913 111.287 -119.5830
20.929486 111.313 -119.9418
21.081150 111.341 -120.3304
21.233912 111.371 -120.7429
21.387782 111.402 -121.1745
21.542767 111.433 -121.6210
21.698874 111.465 -122.0791
21.856113 111.497 -122.5461
22.014492 111.528 -123.0198
22.174018 111.559 -123.4985
22.334700 111.590 -123.9809
22.496546 111.620 -124.4657
22.659566 111.649 -124.9521
22.823766 111.677 -125.4394
22.989157 111.705 -125.9272
23.155745 111.732 -126.4152
23.323542 111.759 -126.9030
23.492554 111.785 -127.3908
23.662790 111.811 -127.8784
23.834261 111.836 -128.3660
24.006973 111.862 -128.8536
24.180938 111.887 -129.3413
24.356163 111.913 -129.8291
24.532658 111.938 -130.3170
24.710431 111.963 -130.8048
24.889493 111.988 -131.2922
25.069853 112.012 -131.7789
25.251519 112.036 -132.2645
25.434502 112.059 -132.7486
25.618811 112.082 -133.2306
25.804456 112.104 -133.7101
25.991445 112.125 -134.1866
26.179790 112.146 -134.6598
26.369500 112.165 -135.1294
26.560584 112.185 -135.5955
26.753053 112.203 -136.0581
26.946917 112.222 -136.5178
27.142185 112.241 -136.9752
27.338869 112.259 -137.4310
27.536977 112.278 -137.8863
27.736522 112.298 -138.3420
27.937512 112.317 -138.7991
28.139959 112.337 -139.2582
28.343872 112.357 -139.7197
28.549264 112.377 -140.1835
28.756143 112.397 -140.6494
28.964522 112.415 -141.1165
29.174411 112.433 -141.5838
29.385821 112.449 -142.0502
29.598763 112.464 -142.5146
29.813248 112.478 -142.9763
30.029287 112.490 -143.4347
30.246891 112.502 -143.8899
30.466073 112.512 -144.3422
30.686842 112.521 -144.7923
30.909212 112.530 -145.2409
31.133193 112.538 -145.6889
31.358797 112.546 -146.1369
31.586035 112.553 -146.5853
31.814921 112.561 -147.0338
32.045465 112.569 -147.4823
32.277680 112.577 -147.9301
32.511577 112.585 -148.3764
32.747169 112.593 -148.8204
32.984469 112.601 -149.2618
33.223488 112.609 -149.7001
33.464239 112.617 -150.1353
33.706735 112.625 -150.5678
33.950987 112.633 -150.9979
34.197010 112.640 -151.4263
34.444816 112.646 -151.8537
34.694417 112.652 -152.2805
34.945827 112.657 -152.7074
35.199059 112.661 -153.1345
35.454126 112.664 -153.5621
35.711041 112.667 -153.9900
35.969818 112.669 -154.4179
36.230470 112.670 -154.8454
36.493011 112.671 -155.2718
36.757455 112.672 -155.6964
37.023814 112.673 -156.1183
37.292104 112.673 -156.5371
37.562338 112.673 -156.9520
37.834530 112.673 -157.3631
38.108695 112.673 -157.7701
38.384846 112.672 -158.1735
38.662999 112.672 -158.5736
38.943167 112.670 -158.9711
39.225365 112.669 -159.3667
39.509608 112.667 -159.7611
39.795911 112.665 -160.1550
40.084289 112.662 -160.5487
40.374756 112.658 -160.9425
40.667328 112.655 -161.3367
40.962020 112.650 -161.7309
41.258848 112.645 -162.1249
41.557827 112.640 -162.5181
41.858972 112.634 -162.9099
42.162299 112.628 -163.2997
42.467824 112.621 -163.6870
42.775564 112.614 -164.0716
43.085533 112.607 -164.4530
43.397749 112.599 -164.8312
43.712227 112.591 -165.2062
44.028983 112.584 -165.5780
44.348036 112.576 -165.9465
44.669400 112.568 -166.3121
44.993093 112.561 -166.6748
45.319131 112.553 -167.0349
45.647532 112.546 -167.3923
45.978313 112.540 -167.7471
46.311491 112.533 -168.0990
46.647083 112.527 -168.4478
46.985107 112.521 -168.7935
47.325581 112.515 -169.1362
47.668521 112.508 -169.4765
48.013947 112.501 -169.8153
48.361876 112.492 -170.1536
48.712326 112.481 -170.4920
49.065315 112.468 -170.8308
49.420863 112.453 -171.1696
49.778987 112.435 -171.5080
50.139706 112.417 -171.8451
50.503039 112.396 -172.1803
50.869005 112.376 -172.5133
51.237623 112.354 -172.8438
51.608912 112.333 -173.1715
51.982891 112.312 -173.4965
52.359580 112.292 -173.8187
52.739000 112.271 -174.1382
53.121168 112.251 -174.4555
53.506106 112.230 -174.7711
53.893833 112.209 -175.0854
54.284370 112.187 -175.3989
54.677737 112.165 -175.7121
55.073955 112.143 -176.0250
55.473043 112.121 -176.3379
55.875024 112.098 -176.6506
56.279917 112.076 -176.9633
56.687745 112.054 -177.2759
57.098527 112.033 -177.5882
57.512287 112.012 -177.8999
57.929045 111.993 -178.2103
58.348822 111.973 -178.5187
58.771642 111.954 -178.8242
59.197525 111.936 -179.1264
59.626495 111.917 -179.4249
60.058573 111.897 -179.7203
60.493782 111.878 179.9871
60.932145 111.857 179.6963
61.373685 111.836 179.4069
61.818424 111.815 179.1184
62.266386 111.793 178.8306
62.717593 111.770 178.5437
63.172071 111.747 178.2578
63.629842 111.724 177.9732
64.090930 111.700 177.6902
64.555359 111.676 177.4090
65.023154 111.652 177.1304
65.494339 111.629 176.8551
65.968938 111.605 176.5842
66.446976 111.581 176.3185
66.928478 111.557 176.0591
67.413469 111.533 175.8064
67.901975 111.508 175.5602
68.394021 111.484 175.3201
68.889632 111.458 175.0849
69.388835 111.433 174.8533
69.891655 111.406 174.6242
70.398118 111.380 174.3964
70.908252 111.353 174.1689
71.422083 111.325 173.9413
71.939636 111.297 173.7133
72.460941 111.269 173.4850
72.986023 111.240 173.2566
73.514909 111.211 173.0286
74.047629 111.182 172.8015
74.584208 111.152 172.5761
75.124676 111.123 172.3528
75.669061 111.093 172.1321
76.217390 111.063 171.9141
76.769692 111.032 171.6989
77.325997 111.002 171.4868
77.886333 110.971 171.2775
78.450730 110.939 171.0710
79.019216 110.908 170.8670
79.591822 110.876 170.6651
80.168577 110.843 170.4648
80.749512 110.811 170.2658
81.334656 110.778 170.0679
81.924040 110.745 169.8713
82.517696 110.712 169.6767
83.115653 110.679 169.4846
83.717943 110.646 169.2958
84.324598 110.613 169.1112
84.935649 110.579 168.9314
85.551128 110.546 168.7568
86.171066 110.512 168.5876
86.795497 110.479 168.4237
87.424453 110.444 168.2648
88.057967 110.410 168.1105
88.696071 110.375 167.9607
89.338800 110.339 167.8152
89.986185 110.303 167.6741
90.638262 110.266 167.5374
91.295065 110.229 167.4052
91.956626 110.192 167.2775
92.622982 110.154 167.1545
93.294166 110.116 167.0361
93.970214 110.078 166.9224
94.651161 110.039 166.8134
95.337042 110.000 166.7093
96.027894 109.961 166.6103
96.723752 109.922 166.5162
97.424652 109.883 166.4270
98.130631 109.844 166.3423
98.841726 109.805 166.2618
99.557974 109.765 166.1853
100.279412 109.726 166.1128
101.006078 109.686 166.0444
101.738010 109.647 165.9805
102.475245 109.607 165.9216
103.217823 109.568 165.8680
103.965782 109.530 165.8198
104.719161 109.492 165.7767
105.477999 109.455 165.7383
106.242336 109.419 165.7037
107.012212 109.383 165.6722
107.787666 109.348 165.6432
108.568740 109.314 165.6159
109.355474 109.281 165.5898
110.147909 109.247 165.5648
110.946086 109.215 165.5408
111.750047 109.182 165.5182
112.559834 109.149 165.4976
113.375489 109.116 165.4800
114.197055 109.083 165.4665
115.024574 109.050 165.4583
115.858089 109.016 165.4569
116.697645 108.983 165.4639
117.543284 108.950 165.4810
118.395051 108.917 165.5096
119.252990 108.884 165.5510
120.117147 108.852 165.6060
120.987565 108.821 165.6750
121.864291 108.791 165.7573
122.747370 108.762 165.8519
123.636848 108.736 165.9565
124.532771 108.712 166.0682
125.435187 108.690 166.1831
126.344142 108.672 166.2972
127.259684 108.658 166.4059
128.181860 108.647 166.5048
129.110718 108.639 166.5894
130.046308 108.635 166.6557
130.988677 108.633 166.7001
131.937875 108.634 166.7202
132.893951 108.636 166.7145
133.856956 108.639 166.6826
134.826938 108.641 166.6256
135.803950 108.643 166.5451
136.788041 108.643 166.4438
137.779264 108.640 166.3246
138.777669 108.636 166.1910
139.783309 108.628 166.0464
140.796237 108.618 165.8940
141.816504 108.605 165.7371
142.844165 108.589 165.5785
143.879273 108.571 165.4206
144.921881 108.550 165.2655
145.972045 108.526 165.1149
147.029819 108.501 164.9699
148.095257 108.474 164.8317
149.168417 108.445 164.7011
150.249353 108.414 164.5786
151.338121 108.383 164.4645
152.434780 108.350 164.3591
153.539385 108.316 164.2625
154.651995 108.281 164.1747
155.772667 108.246 164.0958
156.901460 108.210 164.0260
158.038432 108.174 163.9651
159.183644 108.138 163.9131
160.337154 108.101 163.8698
161.499023 108.065 163.8349
162.669312 108.029 163.8081
163.848081 107.993 163.7890
165.035392 107.957 163.7769
166.231306 107.922 163.7713
167.435887 107.887 163.7713
168.649196 107.853 163.7763
169.871298 107.819 163.7855
171.102255 107.786 163.7981
172.342133 107.753 163.8137
173.590995 107.721 163.8315
174.848907 107.690 163.8511
176.115934 107.659 163.8720
177.392143 107.629 163.8937
178.677599 107.598 163.9156
179.972371 107.568 163.9373
181.276525 107.539 163.9585
182.590129 107.509 163.9789
183.913252 107.479 163.9985
185.245964 107.449 164.0175
186.588332 107.419 164.0363
187.940428 107.389 164.0553
189.302322 107.358 164.0752
190.674085 107.327 164.0964
192.055788 107.296 164.1198
193.447503 107.264 164.1458
194.849303 107.232 164.1749
196.261262 107.199 164.2078
197.683452 107.166 164.2447
199.115948 107.133 164.2863
200.558824 107.100 164.3327
202.012156 107.066 164.3845
203.476019 107.033 164.4421
204.950490 106.999 164.5059
206.435646 106.965 164.5763
207.931564 106.932 164.6536
209.438322 106.898 164.7382
210.955998 106.865 164.8303
212.484672 106.832 164.9301
214.024424 106.800 165.0378
215.575333 106.769 165.1531
217.137481 106.738 165.2758
218.710948 106.709 165.4050
220.295818 106.681 165.5400
221.892172 106.655 165.6794
223.500094 106.630 165.8217
225.119668 106.607 165.9649
226.750978 106.585 166.1069
228.394109 106.566 166.2453
230.049147 106.547 166.3781
231.716178 106.530 166.5032
233.395289 106.514 166.6192
235.086567 106.498 166.7250
236.790102 106.483 166.8204
238.505980 106.468 166.9054
240.234293 106.452 166.9811
241.975130 106.436 167.0487
243.728581 106.419 167.1100
245.494739 106.400 167.1667
247.273695 106.381 167.2209
249.065542 106.361 167.2742
250.870374 106.340 167.3283
252.688284 106.318 167.3844
254.519367 106.295 167.4437
256.363720 106.272 167.5067
258.221437 106.248 167.5741
260.092616 106.223 167.6458
261.977354 106.198 167.7220
263.875750 106.172 167.8027
265.787903 106.147 167.8876
267.713911 106.121 167.9767
269.653877 106.096 168.0699
271.607900 106.070 168.1671
273.576083 106.044 168.2679
275.558528 106.019 168.3723
277.555338 105.994 168.4799
279.566619 105.969 168.5906
281.592474 105.944 168.7042
283.633009 105.919 168.8205
285.688331 105.895 168.9395
287.758546 105.870 169.0610
289.843763 105.846 169.1849
291.944090 105.822 169.3111
294.059638 105.799 169.4394
296.190515 105.775 169.5696
298.336833 105.752 169.7017
300.498705 105.729 169.8358
302.676243 105.706 169.9716
304.869559 105.683 170.1093
307.078770 105.661 170.2488
309.303989 105.639 170.3901
311.545334 105.617 170.5332
313.802919 105.595 170.6780
316.076865 105.573 170.8245
318.367288 105.551 170.9725
320.674309 105.530 171.1220
322.998047 105.509 171.2729
325.338624 105.488 171.4252
327.696162 105.467 171.5787
330.070783 105.447 171.7336
332.462612 105.427 171.8898
334.871773 105.406 172.0473
337.298392 105.386 172.2061
339.742595 105.367 172.3664
342.204510 105.347 172.5282
344.684265 105.328 172.6915
347.181989 105.309 172.8563
349.697813 105.290 173.0226
352.231868 105.271 173.1905
354.784285 105.252 173.3600
357.355198 105.233 173.5309
359.944741 105.215 173.7032
362.553049 105.197 173.8770
365.180258 105.179 174.0520
367.826505 105.162 174.2283
370.491927 105.144 174.4057
373.176665 105.127 174.5843
375.880856 105.110 174.7638
378.604644 105.094 174.9443
381.348169 105.077 175.1259
384.111575 105.061 175.3084
386.895006 105.045 175.4919
389.698607 105.029 175.6765
392.522524 105.013 175.8622
395.366904 104.997 176.0491
398.231895 104.982 176.2373
401.117648 104.967 176.4267
404.024312 104.951 176.6174
406.952038 104.936 176.8094
409.900981 104.922 177.0028
412.871292 104.907 177.1975
415.863128 104.892 177.3936
418.876643 104.878 177.5909
421.911996 104.864 177.7896
424.969344 104.850 177.9896
428.048847 104.836 178.1909
431.150666 104.823 178.3934
434.274961 104.809 178.5972
437.421897 104.796 178.8021
440.591636 104.783 179.0083
443.784345 104.770 179.2156
447.000189 104.758 179.4240
450.239337 104.745 179.6336
453.501956 104.733 179.8445
456.788219 104.721 -179.9435
460.098294 104.709 -179.7300
463.432356 104.697 -179.5153
466.790578 104.686 -179.2991
470.173135 104.675 -179.0814
473.580203 104.664 -178.8624
477.011961 104.653 -178.6419
480.468586 104.642 -178.4200
483.950259 104.632 -178.1969
487.457163 104.622 -177.9724
490.989478 104.612 -177.7466
494.547390 104.602 -177.5196
498.131084 104.592 -177.2912
501.740748 104.583 -177.0615
505.376568 104.573 -176.8304
509.038735 104.564 -176.5979
512.727439 104.555 -176.3640
516.442874 104.546 -176.1286
520.185232 104.537 -175.8918
523.954708 104.529 -175.6535
527.751500 104.520 -175.4137
531.575805 104.512 -175.1724
535.427822 104.504 -174.9296
539.307753 104.496 -174.6853
543.215800 104.489 -174.4395
547.152165 104.481 -174.1921
551.117055 104.474 -173.9434
555.110677 104.467 -173.6932
559.133237 104.461 -173.4416
563.184947 104.454 -173.1887
567.266018 104.448 -172.9343
571.376661 104.442 -172.6786
575.517092 104.436 -172.4215
579.687526 104.430 -172.1629
583.888181 104.424 -171.9030
588.119275 104.418 -171.6417
592.381030 104.413 -171.3790
596.673667 104.408 -171.1149
600.997410 104.403 -170.8494
605.352485 104.397 -170.5824
609.739119 104.392 -170.3139
614.157540 104.388 -170.0438
618.607979 104.383 -169.7720
623.090667 104.378 -169.4980
627.605839 104.372 -169.2218
632.153730 104.367 -168.9426
636.734576 104.362 -168.6599
641.348617 104.356 -168.3729
645.996094 104.350 -168.0805
650.677248 104.343 -167.7815
655.392323 104.336 -167.4747
660.141566 104.330 -167.1585
664.925224 104.323 -166.8318
669.743546 104.317 -166.4934
674.596784 104.311 -166.1428
679.485191 104.306 -165.7801
684.409020 104.303 -165.4061
689.368530 104.301 -165.0227
694.363979 104.302 -164.6323
699.395626 104.304 -164.2374
704.463736 104.308 -163.8400
709.568570 104.313 -163.4415
714.710396 104.320 -163.0418
719.889483 104.328 -162.6406
725.106099 104.338 -162.2373
730.360516 104.349 -161.8321
735.653010 104.362 -161.4259
740.983855 104.377 -161.0203
746.353329 104.393 -160.6172
751.761713 104.411 -160.2183
757.209288 104.430 -159.8246
762.696339 104.450 -159.4365
768.223151 104.471 -159.0539
773.790013 104.492 -158.6762
779.397214 104.514 -158.3024
785.045047 104.536 -157.9312
790.733808 104.559 -157.5618
796.463791 104.581 -157.1930
802.235296 104.604 -156.8239
808.048623 104.628 -156.4539
813.904077 104.652 -156.0824
819.801961 104.676 -155.7091
825.742584 104.701 -155.3337
831.726255 104.727 -154.9562
837.753287 104.754 -154.5766
843.823992 104.781 -154.1951
849.938689 104.810 -153.8118
856.097695 104.839 -153.4271
862.301332 104.870 -153.0412
868.549922 104.902 -152.6545
874.843793 104.935 -152.2673
881.183272 104.970 -151.8800
887.568689 105.005 -151.4930
894.000378 105.042 -151.1066
900.478673 105.080 -150.7212
907.003913 105.120 -150.3372
913.576437 105.161 -149.9551
920.196588 105.203 -149.5753
926.864712 105.247 -149.1982
933.581156 105.292 -148.8243
940.346270 105.339 -148.4541
947.160407 105.386 -148.0880
954.023921 105.436 -147.7265
960.937172 105.486 -147.3700
967.900519 105.538 -147.0190
974.914325 105.591 -146.6741
981.978956 105.645 -146.3355
989.094780 105.700 -146.0037
996.262169 105.757 -145.6792
1003.481495 105.815 -145.3624
1010.753136 105.873 -145.0535
1018.077470 105.933 -144.7529
1025.454879 105.994 -144.4609
1032.885748 106.055 -144.1777
1040.370463 106.117 -143.9037
1047.909417 106.180 -143.6389
1055.503000 106.244 -143.3836
1063.151610 106.308 -143.1379
1070.855645 106.373 -142.9018
1078.615506 106.438 -142.6754
1086.431599 106.503 -142.4587
1094.304330 106.568 -142.2516
1102.234110 106.634 -142.0540
1110.221353 106.700 -141.8657
1118.266475 106.766 -141.6867
1126.369895 106.831 -141.5167
1134.532035 106.897 -141.3554
1142.753322 106.962 -141.2027
1151.034184 107.027 -141.0582
1159.375052 107.092 -140.9216
1167.776361 107.157 -140.7926
1176.238550 107.221 -140.6709
1184.762060 107.284 -140.5560
1193.347334 107.348 -140.4475
1201.994821 107.410 -140.3452
1210.704971 107.473 -140.2485
1219.478238 107.534 -140.1571
1228.315080 107.596 -140.0706
1237.215957 107.656 -139.9885
1246.181334 107.716 -139.9105
1255.211678 107.776 -139.8363
1264.307459 107.835 -139.7653
1273.469152 107.894 -139.6974
1282.697235 107.952 -139.6320
1291.992188 108.009 -139.5690
1301.354495 108.067 -139.5079
1310.784647 108.123 -139.4485
1320.283132 108.180 -139.3905
1329.850448 108.236 -139.3338
1339.487093 108.291 -139.2780
1349.193569 108.347 -139.2229
1358.970381 108.402 -139.1685
1368.818041 108.457 -139.1146
1378.737061 108.511 -139.0610
1388.727958 108.566 -139.0077
1398.791253 108.620 -138.9545
1408.927471 108.674 -138.9014
1419.137140 108.729 -138.8484
1429.420793 108.783 -138.7954
1439.778965 108.837 -138.7425
1450.212197 108.892 -138.6896
1460.721033 108.946 -138.6368
1471.306019 109.001 -138.5842
1481.967709 109.055 -138.5317
1492.706658 109.111 -138.4796
1503.523426 109.166 -138.4278
1514.418576 109.221 -138.3765
1525.392678 109.277 -138.3258
1536.446302 109.334 -138.2759
1547.580025 109.390 -138.2268
1558.794428 109.447 -138.1789
1570.090095 109.505 -138.1321
1581.467615 109.563 -138.0868
1592.927581 109.621 -138.0430
1604.470591 109.680 -138.0011
1616.097246 109.739 -137.9612
1627.808153 109.799 -137.9235
1639.603922 109.860 -137.8882
1651.485168 109.921 -137.8556
1663.452510 109.982 -137.8258
1675.506573 110.044 -137.7991
1687.647984 110.107 -137.7757
1699.877377 110.170 -137.7558
1712.195390 110.233 -137.7397
1724.602663 110.298 -137.7276
1737.099845 110.362 -137.7195
1749.687587 110.427 -137.7159
1762.366544 110.493 -137.7167
1775.137379 110.559 -137.7221
1788.000756 110.625 -137.7322
1800.957346 110.692 -137.7472
1814.007826 110.760 -137.7670
1827.152874 110.827 -137.7915
1840.393177 110.896 -137.8209
1853.729425 110.964 -137.8550
1867.162312 111.033 -137.8936
1880.692540 111.103 -137.9368
1894.320813 111.172 -137.9843
1908.047843 111.243 -138.0360
1921.874344 111.314 -138.0919
1935.801038 111.386 -138.1520
1949.828650 111.458 -138.2165
1963.957912 111.532 -138.2856
1978.189561 111.606 -138.3600
1992.524338 111.682 -138.4403
2006.962991 111.759 -138.5278
2021.506272 111.838 -138.6238
2036.154940 111.918 -138.7302
2050.909758 112.000 -138.8490
2065.771495 112.083 -138.9825
2080.740927 112.168 -139.1329
2095.818833 112.254 -139.3026
2111.006001 112.341 -139.4935
2126.303220 112.428 -139.7072
2141.711290 112.515 -139.9448
2157.231013 112.602 -140.2067
2172.863198 112.688 -140.4929
2188.608660 112.773 -140.8028
2204.468221 112.856 -141.1354
2220.442706 112.938 -141.4893
2236.532950 113.017 -141.8630
2252.739789 113.094 -142.2550
2269.064070 113.169 -142.6637
2285.506644 113.242 -143.0875
2302.068367 113.311 -143.5253
2318.750104 113.379 -143.9756
2335.552723 113.444 -144.4375
2352.477101 113.506 -144.9099
2369.524119 113.566 -145.3919
2386.694668 113.624 -145.8829
2403.989641 113.678 -146.3821
2421.409941 113.731 -146.8887
2438.956476 113.781 -147.4022
2456.630160 113.828 -147.9220
2474.431915 113.873 -148.4473
2492.362668 113.915 -148.9777
2510.423356 113.954 -149.5125
2528.614918 113.991 -150.0512
2546.938304 114.025 -150.5931
2565.394469 114.057 -151.1377
2583.984375 114.086 -151.6843
2602.708991 114.112 -152.2323
2621.569293 114.135 -152.7812
2640.566265 114.156 -153.3302
2659.700897 114.174 -153.8789
2678.974186 114.189 -154.4265
2698.387137 114.202 -154.9723
2717.940763 114.212 -155.5158
2737.636082 114.219 -156.0562
2757.474121 114.224 -156.5928
2777.455915 114.226 -157.1249
2797.582506 114.225 -157.6517
2817.854942 114.221 -158.1723
2838.274281 114.215 -158.6858
2858.841586 114.205 -159.1913
2879.557931 114.194 -159.6879
2900.424394 114.179 -160.1742
2921.442065 114.162 -160.6492
2942.612039 114.142 -161.1114
2963.935418 114.120 -161.5595
2985.413316 114.095 -161.9921
3007.046852 114.069 -162.4076
3028.837153 114.040 -162.8045
3050.785356 114.009 -163.1816
3072.892604 113.977 -163.5378
3095.160050 113.943 -163.8721
3117.588856 113.909 -164.1841
3140.180190 113.874 -164.4736
3162.935230 113.839 -164.7411
3185.855163 113.804 -164.9874
3208.941182 113.770 -165.2133
3232.194493 113.737 -165.4205
3255.616307 113.704 -165.6104
3279.207844 113.673 -165.7846
3302.970336 113.643 -165.9447
3326.905021 113.615 -166.0922
3351.013146 113.587 -166.2283
3375.295969 113.562 -166.3543
3399.754755 113.537 -166.4711
3424.390779 113.514 -166.5793
3449.205326 113.492 -166.6796
3474.199690 113.472 -166.7725
3499.375173 113.453 -166.8583
3524.733088 113.435 -166.9373
3550.274757 113.418 -167.0098
3576.001511 113.403 -167.0761
3601.914692 113.390 -167.1364
3628.015651 113.378 -167.1911
3654.305748 113.367 -167.2405
3680.786354 113.359 -167.2851
3707.458849 113.352 -167.3254
3734.324624 113.346 -167.3622
3761.385080 113.343 -167.3960
3788.641627 113.342 -167.4278
3816.095686 113.343 -167.4585
3843.748688 113.346 -167.4893
3871.602076 113.352 -167.5213
3899.657300 113.360 -167.5558
3927.915825 113.371 -167.5944
3956.379122 113.384 -167.6384
3985.048676 113.399 -167.6893
4013.925981 113.417 -167.7489
4043.012544 113.438 -167.8188
4072.309879 113.461 -167.9007
4101.819515 113.486 -167.9963
4131.542990 113.514 -168.1076
4161.481854 113.544 -168.2362
4191.637667 113.577 -168.3842
4222.012001 113.611 -168.5534
4252.606441 113.647 -168.7458
4283.422580 113.685 -168.9633
4314.462026 113.724 -169.2080
4345.726396 113.764 -169.4816
4377.217321 113.805 -169.7863
4408.936442 113.847 -170.1236
4440.885413 113.888 -170.4952
4473.065899 113.929 -170.9027
4505.479579 113.969 -171.3471
4538.128141 114.008 -171.8294
4571.013288 114.044 -172.3500
4604.136735 114.078 -172.9091
4637.500207 114.108 -173.5061
4671.105446 114.134 -174.1400
4704.954201 114.155 -174.8094
4739.048239 114.171 -175.5119
4773.389336 114.181 -176.2447
4807.979283 114.184 -177.0046
4842.819883 114.180 -177.7876
4877.912952 114.169 -178.5897
4913.260320 114.150 -179.4063
4948.863830 114.123 179.7671
4984.725337 114.088 178.9349
5020.846712 114.045 178.1013
5057.229836 113.995 177.2701
5093.876609 113.936 176.4447
5130.788938 113.870 175.6277
5167.968750 113.797 174.8215
5205.417982 113.717 174.0281
5243.138586 113.630 173.2491
5281.132530 113.536 172.4863
5319.401793 113.434 171.7415
5357.948371 113.326 171.0168
5396.774274 113.211 170.3150
5435.881525 113.089 169.6389
5475.272163 112.960 168.9922
5514.948243 112.824 168.3789
5554.911831 112.680 167.8034
5595.165012 112.530 167.2706
5635.709884 112.373 166.7855
5676.548561 112.210 166.3533
5717.683172 112.040 165.9794
5759.115861 111.866 165.6690
5800.848789 111.687 165.4269
5842.884130 111.505 165.2571
5885.224077 111.320 165.1625
5927.870837 111.134 165.1443
5970.826633 110.948 165.2015
6014.093704 110.764 165.3304
6057.674306 110.583 165.5254
6101.570711 110.407 165.7783
6145.785208 110.234 166.0810
6190.320101 110.066 166.4258
6235.177712 109.902 166.8078
6280.360380 109.742 167.2245
6325.870460 109.584 167.6766
6371.710325 109.429 168.1662
6417.882365 109.277 168.6968
6464.388986 109.128 169.2716
6511.232613 108.981 169.8935
6558.415689 108.839 170.5646
6605.940673 108.700 171.2860
6653.810042 108.567 172.0578
6702.026292 108.439 172.8795
6750.591937 108.317 173.7498
6799.509509 108.203 174.6671
6848.781558 108.096 175.6294
6898.410653 107.997 176.6345
6948.399380 107.907 177.6797
6998.750346 107.827 178.7624
7049.466176 107.757 179.8797
7100.549514 107.697 -178.9715
7152.003023 107.649 -177.7946
7203.829385 107.613 -176.5931
7256.031302 107.590 -175.3707
7308.611496 107.580 -174.1315
7361.572708 107.584 -172.8799
7414.917698 107.603 -171.6212
7468.649249 107.639 -170.3616
7522.770160 107.691 -169.1086
7577.283253 107.760 -167.8710
7632.191371 107.849 -166.6596
7687.497376 107.957 -165.4866
7743.204151 108.085 -164.3661
7799.314600 108.233 -163.3140
7855.831649 108.402 -162.3473
7912.758244 108.590 -161.4843
7970.097352 108.798 -160.7438
8027.851962 109.023 -160.1453
8086.025087 109.265 -159.7079
8144.619758 109.520 -159.4499
8203.639030 109.787 -159.3885
8263.085980 110.060 -159.5389
8322.963708 110.338 -159.9139
8383.275334 110.615 -160.5232
8444.024002 110.887 -161.3730
8505.212881 111.149 -162.4653
8566.845160 111.395 -163.7976
8628.924051 111.621 -165.3623
8691.452792 111.821 -167.1467
8754.434642 111.990 -169.1324
8817.872884 112.124 -171.2959
8881.770826 112.218 -173.6084
8946.131799 112.269 -176.0363
9010.959157 112.274 -178.5423
9076.256282 112.231 178.9138
9142.026576 112.140 176.3739
9208.273470 112.000 173.8801
9275.000415 111.814 171.4729
9342.210891 111.583 169.1908
9409.908403 111.309 167.0686
9478.096478 110.998 165.1370
9546.778672 110.652 163.4219
9615.958566 110.277 161.9446
9685.639765 109.877 160.7217
9755.825904 109.457 159.7650
9826.520640 109.022 159.0818
9897.727659 108.578 158.6755
9969.450674 108.128 158.5455
10041.693423 107.679 158.6877
10114.459673 107.233 159.0949
10187.753217 106.797 159.7573
10261.577877 106.373 160.6625
10335.937500 105.966 161.7966
10410.835964 105.579 163.1439
10486.277173 105.216 164.6879
10562.265060 104.879 166.4114
10638.803587 104.572 168.2965
10715.896743 104.297 170.3250
10793.548548 104.056 172.4781
10871.763050 103.854 174.7363
10950.544327 103.691 177.0792
11029.896485 103.570 179.4846
11109.823662 103.495 -178.0723
11190.330024 103.468 -175.6185
11271.419768 103.492 -173.1851
11353.097122 103.567 -170.8073
11435.366344 103.697 -168.5242
11518.231722 103.880 -166.3794
11601.697577 104.117 -164.4194
11685.768261 104.404 -162.6929
11770.448155 104.739 -161.2490
11855.741674 105.115 -160.1352
11941.653265 105.524 -159.3954
12028.187408 105.959 -159.0678
12115.348612 106.409 -159.1836
12203.141422 106.863 -159.7654
12291.570415 107.310 -160.8261
12380.640201 107.738 -162.3681
12470.355424 108.134 -164.3828
12560.720760 108.488 -166.8490
12651.740920 108.786 -169.7325
12743.420650 109.019 -172.9845
12835.764729 109.175 -176.5413
12928.777972 109.246 179.6758
13022.465227 109.227 175.7575
13116.831378 109.114 171.8022
13211.881345 108.908 167.9099
13307.620084 108.611 164.1746
13404.052584 108.228 160.6806
13501.183875 107.768 157.4991
13599.019019 107.238 154.6879
13697.563116 106.647 152.2927
13796.821305 106.005 150.3481
13896.798760 105.319 148.8787
13997.500692 104.600 147.9010
14098.932352 103.857 147.4230
14201.099028 103.098 147.4453
14304.006046 102.333 147.9609
14407.658770 101.572 148.9555
14512.062604 100.823 150.4070
14617.222992 100.096 152.2859
14723.145416 99.402 154.5556
14829.835397 98.748 157.1717
14937.298497 98.145 160.0830
15045.540320 97.600 163.2310
15154.566507 97.123 166.5506
15264.382743 96.718 169.9701
15374.994752 96.391 173.4120
15486.408302 96.145 176.7946
15598.629201 95.980 -179.9655
15711.663298 95.892 -176.9500
15825.516487 95.877 -174.2347
15940.194703 95.926 -171.8852
16055.703925 96.030 -169.9537
16172.050174 96.175 -168.4771
16289.239516 96.349 -167.4770
16407.278061 96.539 -166.9600
16526.171961 96.731 -166.9199
16645.927415 96.915 -167.3388
16766.550667 97.077 -168.1884
16888.048005 97.208 -169.4310
17010.425762 97.298 -171.0207
17133.690320 97.340 -172.9040
17257.848103 97.326 -175.0219
17382.905584 97.252 -177.3112
17508.869284 97.116 -179.7076
17635.745768 96.917 177.8517
17763.541652 96.656 175.4258
17892.263597 96.334 173.0674
18021.918315 95.956 170.8214
18152.512564 95.526 168.7240
18284.053153 95.049 166.8021
18416.546939 94.531 165.0738
18550.000830 93.977 163.5490
18684.421783 93.396 162.2305
18819.816805 92.793 161.1147
18956.192956 92.178 160.1936
19093.557344 91.563 159.4549
19231.917131 90.962 158.8831
19371.279531 90.393 158.4601
19511.651807 89.881 158.1645
19653.041280 89.456 157.9732
19795.455318 89.149 157.8628
19938.901348 88.987 157.8134
