* Measurement data measured by REW V5.20.9
* Source: Головной телефон (TX 384Khz HiFi Audio), MICROPHONE (Общая громкость), R, volume: 0,250. Timing signal peak level 0,0 dBFS, measurement signal peak level zero
* Format: 256k Log Swept Sine, 1 sweep at -12,0 dBFS using an acoustic timing reference
* Dated: 11.09.2022 12:51:47
* REW Settings:
*  C-weighting compensation: Off
*  Target level: 75.0 dB
* Note: 
* Measurement: Hodur + Final
* Smoothing: 1/12 octave
* Frequency Step: 96 ppo
* Start Frequency: 20.141602 Hz
*
* Freq(Hz) SPL(dB) Phase(degrees)
20.141602 127.740 -121.2744
20.287556 127.753 -121.4480
20.434568 127.772 -121.7039
20.582645 127.795 -122.0181
20.731796 127.821 -122.3706
20.882027 127.849 -122.7467
21.033346 127.879 -123.1374
21.185763 127.909 -123.5372
21.339284 127.939 -123.9431
21.493917 127.970 -124.3534
21.649671 128.001 -124.7669
21.806553 128.031 -125.1827
21.964572 128.062 -125.6000
22.123737 128.092 -126.0179
22.284054 128.122 -126.4355
22.445534 128.152 -126.8519
22.608183 128.181 -127.2665
22.772012 128.210 -127.6788
22.937027 128.239 -128.0885
23.103238 128.267 -128.4957
23.270654 128.295 -128.9005
23.439282 128.322 -129.3031
23.609133 128.349 -129.7040
23.780215 128.376 -130.1035
23.952536 128.402 -130.5020
24.126106 128.428 -130.8995
24.300934 128.454 -131.2964
24.477028 128.479 -131.6926
24.654399 128.504 -132.0882
24.833055 128.529 -132.4831
25.013005 128.553 -132.8775
25.194260 128.577 -133.2715
25.376828 128.601 -133.6651
25.560719 128.625 -134.0588
25.745942 128.648 -134.4525
25.932508 128.672 -134.8464
26.120426 128.695 -135.2406
26.309705 128.717 -135.6348
26.500356 128.740 -136.0290
26.692388 128.762 -136.4227
26.885812 128.784 -136.8158
27.080638 128.806 -137.2080
27.276876 128.828 -137.5994
27.474535 128.849 -137.9900
27.673627 128.871 -138.3801
27.874161 128.892 -138.7699
28.076149 128.913 -139.1596
28.279600 128.933 -139.5491
28.484526 128.953 -139.9379
28.690937 128.971 -140.3252
28.898843 128.988 -140.7101
29.108256 129.005 -141.0914
29.319186 129.020 -141.4684
29.531645 129.035 -141.8404
29.745644 129.049 -142.2079
29.961193 129.063 -142.5714
30.178304 129.077 -142.9326
30.396989 129.091 -143.2929
30.617258 129.106 -143.6542
30.839123 129.121 -144.0175
31.062596 129.136 -144.3834
31.287688 129.151 -144.7513
31.514412 129.165 -145.1204
31.742778 129.180 -145.4891
31.972800 129.194 -145.8562
32.204488 129.207 -146.2208
32.437855 129.221 -146.5827
32.672913 129.234 -146.9426
32.909674 129.247 -147.3017
33.148151 129.260 -147.6611
33.388356 129.273 -148.0218
33.630302 129.285 -148.3842
33.874001 129.296 -148.7476
34.119466 129.307 -149.1113
34.366710 129.316 -149.4739
34.615745 129.326 -149.8347
34.866585 129.335 -150.1929
35.119243 129.344 -150.5486
35.373731 129.353 -150.9018
35.630064 129.363 -151.2525
35.888254 129.371 -151.6005
36.148315 129.380 -151.9449
36.410261 129.389 -152.2849
36.674104 129.398 -152.6196
36.939860 129.407 -152.9494
37.207542 129.417 -153.2753
37.477163 129.427 -153.5993
37.748738 129.439 -153.9238
38.022281 129.451 -154.2504
38.297806 129.463 -154.5800
38.575327 129.476 -154.9120
38.854860 129.488 -155.2448
39.136419 129.500 -155.5768
39.420017 129.512 -155.9070
39.705671 129.523 -156.2357
39.993395 129.535 -156.5646
40.283203 129.547 -156.8962
40.575112 129.558 -157.2326
40.869136 129.569 -157.5747
41.165290 129.578 -157.9218
41.463591 129.586 -158.2717
41.764053 129.593 -158.6216
42.066693 129.598 -158.9690
42.371525 129.603 -159.3127
42.678567 129.608 -159.6526
42.987834 129.613 -159.9899
43.299341 129.617 -160.3260
43.613106 129.622 -160.6621
43.929145 129.626 -160.9986
44.247473 129.630 -161.3353
44.568109 129.634 -161.6717
44.891068 129.637 -162.0075
45.216367 129.641 -162.3423
45.544023 129.643 -162.6759
45.874054 129.646 -163.0082
46.206476 129.648 -163.3394
46.541307 129.650 -163.6697
46.878565 129.651 -163.9998
47.218266 129.652 -164.3305
47.560429 129.652 -164.6620
47.905072 129.652 -164.9938
48.252212 129.651 -165.3243
48.601867 129.650 -165.6515
48.954056 129.648 -165.9733
49.308798 129.647 -166.2892
49.666109 129.646 -166.6001
50.026010 129.646 -166.9082
50.388520 129.647 -167.2159
50.753656 129.647 -167.5248
51.121437 129.647 -167.8354
51.491884 129.647 -168.1471
51.865016 129.645 -168.4589
52.240851 129.643 -168.7699
52.619410 129.641 -169.0799
53.000712 129.638 -169.3889
53.384777 129.636 -169.6969
53.771625 129.632 -170.0038
54.161276 129.629 -170.3098
54.553751 129.625 -170.6147
54.949070 129.621 -170.9189
55.347254 129.617 -171.2224
55.748323 129.612 -171.5253
56.152298 129.607 -171.8276
56.559201 129.602 -172.1289
56.969052 129.597 -172.4292
57.381873 129.591 -172.7283
57.797686 129.586 -173.0261
58.216512 129.580 -173.3226
58.638373 129.574 -173.6176
59.063291 129.567 -173.9116
59.491288 129.561 -174.2049
59.922386 129.554 -174.4980
60.356608 129.547 -174.7911
60.793977 129.540 -175.0839
61.234515 129.532 -175.3761
61.678246 129.524 -175.6674
62.125192 129.516 -175.9575
62.575377 129.508 -176.2466
63.028824 129.499 -176.5347
63.485557 129.491 -176.8218
63.945599 129.482 -177.1079
64.408975 129.473 -177.3929
64.875709 129.463 -177.6769
65.345825 129.454 -177.9598
65.819348 129.444 -178.2418
66.296302 129.434 -178.5228
66.776713 129.423 -178.8025
67.260604 129.412 -179.0811
67.748002 129.401 -179.3585
68.238932 129.390 -179.6349
68.733420 129.379 -179.9107
69.231490 129.367 179.8142
69.733170 129.355 179.5398
70.238485 129.343 179.2662
70.747463 129.330 178.9934
71.260128 129.318 178.7217
71.776508 129.305 178.4511
72.296630 129.292 178.1813
72.820521 129.278 177.9123
73.348209 129.265 177.6439
73.879720 129.251 177.3761
74.415083 129.237 177.1092
74.954326 129.222 176.8433
75.497475 129.208 176.5787
76.044561 129.193 176.3155
76.595612 129.178 176.0538
77.150655 129.162 175.7938
77.709720 129.147 175.5353
78.272837 129.131 175.2779
78.840034 129.115 175.0214
79.411342 129.098 174.7656
79.986789 129.082 174.5106
80.566406 129.065 174.2567
81.150224 129.048 174.0039
81.738272 129.030 173.7522
82.330581 129.013 173.5014
82.927182 128.995 173.2516
83.528107 128.977 173.0030
84.133386 128.959 172.7554
84.743051 128.940 172.5088
85.357134 128.921 172.2632
85.975667 128.902 172.0186
86.598682 128.883 171.7753
87.226212 128.863 171.5332
87.858289 128.843 171.2923
88.494946 128.823 171.0526
89.136217 128.803 170.8141
89.782135 128.782 170.5768
90.432733 128.762 170.3407
91.088046 128.741 170.1058
91.748108 128.719 169.8723
92.412952 128.698 169.6401
93.082615 128.676 169.4095
93.757130 128.654 169.1806
94.436533 128.631 168.9534
95.120859 128.609 168.7277
95.810144 128.586 168.5033
96.504423 128.563 168.2802
97.203734 128.540 168.0584
97.908112 128.517 167.8380
98.617595 128.494 167.6191
99.332219 128.470 167.4016
100.052021 128.446 167.1853
100.777039 128.422 166.9696
101.507311 128.397 166.7542
102.242875 128.373 166.5390
102.983769 128.348 166.3244
103.730032 128.322 166.1113
104.481702 128.297 165.9002
105.238820 128.271 165.6914
106.001424 128.245 165.4845
106.769554 128.219 165.2793
107.543250 128.192 165.0756
108.322553 128.166 164.8734
109.107503 128.139 164.6729
109.898141 128.112 164.4739
110.694508 128.084 164.2765
111.496646 128.057 164.0803
112.304596 128.029 163.8853
113.118402 128.001 163.6916
113.938104 127.973 163.4993
114.763747 127.945 163.3089
115.595372 127.916 163.1204
116.433024 127.887 162.9337
117.276746 127.858 162.7483
118.126581 127.829 162.5637
118.982575 127.800 162.3798
119.844772 127.770 162.1964
120.713217 127.740 162.0135
121.587954 127.710 161.8317
122.469031 127.679 161.6514
123.356492 127.648 161.4730
124.250384 127.617 161.2964
125.150753 127.585 161.1214
126.057647 127.554 160.9475
126.971113 127.522 160.7746
127.891198 127.490 160.6027
128.817950 127.457 160.4321
129.751418 127.424 160.2632
130.691651 127.391 160.0961
131.638696 127.358 159.9310
132.592604 127.323 159.7679
133.553425 127.289 159.6065
134.521208 127.253 159.4466
135.496004 127.217 159.2878
136.477864 127.181 159.1307
137.466839 127.144 158.9760
138.462981 127.106 158.8244
139.466340 127.069 158.6761
140.476971 127.030 158.5310
141.494925 126.992 158.3893
142.520256 126.952 158.2517
143.553016 126.912 158.1189
144.593260 126.872 157.9912
145.641043 126.830 157.8690
146.696418 126.789 157.7521
147.759441 126.747 157.6406
148.830166 126.704 157.5341
149.908651 126.661 157.4327
150.994951 126.617 157.3366
152.089123 126.573 157.2464
153.191223 126.527 157.1632
154.301310 126.481 157.0886
155.419441 126.434 157.0246
156.545674 126.386 156.9734
157.680069 126.337 156.9381
158.822683 126.288 156.9215
159.973578 126.238 156.9271
161.132813 126.188 156.9583
162.300447 126.140 157.0179
163.476543 126.093 157.1079
164.661162 126.050 157.2287
165.854364 126.011 157.3782
167.056213 125.977 157.5518
168.266772 125.951 157.7411
169.486102 125.932 157.9352
170.714268 125.922 158.1199
171.951334 125.920 158.2806
173.197364 125.925 158.4030
174.452424 125.935 158.4758
175.716578 125.949 158.4917
176.989893 125.964 158.4482
178.272434 125.977 158.3472
179.564270 125.988 158.1949
180.865467 125.995 158.0004
182.176092 125.995 157.7742
183.496216 125.990 157.5274
184.825905 125.979 157.2697
186.165229 125.962 157.0092
187.514259 125.941 156.7523
188.873065 125.915 156.5040
190.241717 125.885 156.2673
191.620287 125.852 156.0440
193.008847 125.817 155.8348
194.407468 125.780 155.6394
195.816225 125.742 155.4573
197.235190 125.702 155.2876
198.664438 125.662 155.1294
200.104042 125.621 154.9817
201.554078 125.579 154.8436
203.014622 125.538 154.7145
204.485750 125.496 154.5939
205.967538 125.454 154.4813
207.460064 125.411 154.3762
208.963405 125.369 154.2780
210.477640 125.326 154.1860
212.002848 125.284 154.0997
213.539108 125.241 154.0188
215.086500 125.199 153.9429
216.645105 125.156 153.8718
218.215005 125.114 153.8051
219.796281 125.071 153.7426
221.389015 125.029 153.6841
222.993292 124.986 153.6295
224.609193 124.943 153.5782
226.236804 124.901 153.5305
227.876209 124.858 153.4861
229.527494 124.816 153.4451
231.190745 124.773 153.4073
232.866048 124.731 153.3727
234.553491 124.688 153.3412
236.253163 124.646 153.3131
237.965150 124.603 153.2880
239.689544 124.561 153.2658
241.426433 124.519 153.2466
243.175909 124.477 153.2301
244.938062 124.435 153.2163
246.712984 124.392 153.2052
248.500768 124.350 153.1969
250.301507 124.308 153.1917
252.115295 124.266 153.1898
253.942226 124.223 153.1911
255.782396 124.181 153.1956
257.635901 124.139 153.2028
259.502837 124.096 153.2124
261.383301 124.054 153.2243
263.277392 124.012 153.2384
265.185209 123.970 153.2548
267.106850 123.928 153.2734
269.042417 123.886 153.2945
270.992009 123.844 153.3179
272.955729 123.802 153.3436
274.933678 123.760 153.3714
276.925961 123.718 153.4013
278.932681 123.676 153.4334
280.953942 123.635 153.4678
282.989850 123.593 153.5046
285.040511 123.551 153.5439
287.106032 123.510 153.5860
289.186521 123.468 153.6307
291.282086 123.426 153.6779
293.392836 123.385 153.7278
295.518881 123.343 153.7801
297.660333 123.301 153.8351
299.817302 123.259 153.8926
301.989902 123.218 153.9528
304.178245 123.176 154.0154
306.382446 123.134 154.0804
308.602620 123.092 154.1480
310.838882 123.051 154.2184
313.091348 123.009 154.2918
315.360137 122.967 154.3683
317.645367 122.925 154.4479
319.947156 122.884 154.5305
322.265625 122.842 154.6161
324.600895 122.800 154.7047
326.953086 122.759 154.7962
329.322323 122.718 154.8907
331.708729 122.676 154.9881
334.112427 122.635 155.0884
336.533543 122.594 155.1916
338.972204 122.554 155.2977
341.428536 122.513 155.4065
343.902668 122.473 155.5181
346.394729 122.433 155.6321
348.904848 122.392 155.7487
351.433156 122.352 155.8676
353.979786 122.312 155.9893
356.544869 122.272 156.1141
359.128540 122.233 156.2423
361.730934 122.193 156.3741
364.352185 122.154 156.5096
366.992431 122.115 156.6487
369.651810 122.076 156.7910
372.330459 122.038 156.9365
375.028519 122.000 157.0846
377.746130 121.963 157.2348
380.483434 121.926 157.3865
383.240574 121.889 157.5391
386.017693 121.853 157.6918
388.814937 121.817 157.8441
391.632450 121.782 157.9958
394.470380 121.746 158.1471
397.328875 121.711 158.2980
400.208084 121.676 158.4492
403.108157 121.640 158.6010
406.029245 121.605 158.7540
408.971500 121.569 158.9085
411.935076 121.533 159.0648
414.920127 121.497 159.2230
417.926810 121.461 159.3834
420.955280 121.425 159.5463
424.005695 121.389 159.7123
427.078215 121.353 159.8813
430.173000 121.317 160.0534
433.290211 121.280 160.2285
436.430010 121.244 160.4066
439.592562 121.208 160.5878
442.778031 121.172 160.7722
445.986583 121.136 160.9598
449.218386 121.100 161.1507
452.473607 121.065 161.3448
455.752418 121.029 161.5421
459.054987 120.994 161.7424
462.381489 120.959 161.9455
465.732096 120.924 162.1516
469.106983 120.889 162.3606
472.506325 120.854 162.5728
475.930301 120.820 162.7880
479.379088 120.785 163.0062
482.852867 120.751 163.2275
486.351817 120.717 163.4517
489.876123 120.684 163.6790
493.425968 120.650 163.9095
497.001536 120.617 164.1433
500.603014 120.584 164.3801
504.230589 120.551 164.6198
507.884452 120.518 164.8624
511.564792 120.486 165.1078
515.271802 120.454 165.3563
519.005673 120.422 165.6076
522.766602 120.390 165.8617
526.554785 120.359 166.1187
530.370418 120.328 166.3786
534.213700 120.297 166.6415
538.084833 120.266 166.9077
541.984018 120.235 167.1771
545.911457 120.205 167.4499
549.867357 120.175 167.7263
553.851922 120.146 168.0063
557.865362 120.117 168.2897
561.907884 120.088 168.5766
565.979700 120.059 168.8668
570.081022 120.030 169.1602
574.212064 120.002 169.4569
578.373042 119.974 169.7568
582.564171 119.946 170.0601
586.785671 119.919 170.3667
591.037762 119.892 170.6768
595.320665 119.866 170.9902
599.634604 119.839 171.3070
603.979804 119.814 171.6270
608.356491 119.788 171.9503
612.764893 119.764 172.2769
617.205240 119.739 172.6068
621.677763 119.715 172.9403
626.182696 119.691 173.2775
630.720274 119.667 173.6186
635.290733 119.644 173.9639
639.894312 119.621 174.3135
644.531250 119.599 174.6674
649.201789 119.577 175.0251
653.906173 119.556 175.3867
658.644647 119.534 175.7520
663.417457 119.514 176.1212
668.224854 119.494 176.4947
673.067086 119.474 176.8724
677.944408 119.455 177.2542
682.857073 119.437 177.6400
687.805336 119.419 178.0297
692.789457 119.401 178.4234
697.809695 119.384 178.8213
702.866312 119.368 179.2237
707.959571 119.353 179.6308
713.089738 119.338 -179.9575
718.257080 119.323 -179.5412
723.461867 119.310 -179.1207
728.704370 119.297 -178.6957
733.984862 119.285 -178.2664
739.303619 119.273 -177.8325
744.660918 119.262 -177.3938
750.057038 119.252 -176.9503
755.492260 119.243 -176.5017
760.966869 119.235 -176.0481
766.481148 119.227 -175.5893
772.035387 119.220 -175.1250
777.629873 119.214 -174.6548
783.264900 119.208 -174.1780
788.940760 119.203 -173.6937
794.657750 119.199 -173.2009
800.416168 119.196 -172.6983
806.216313 119.195 -172.1846
812.058489 119.195 -171.6583
817.943000 119.197 -171.1192
823.870152 119.202 -170.5681
829.840255 119.210 -170.0082
835.853619 119.222 -169.4449
841.910559 119.239 -168.8857
848.011390 119.258 -168.3376
854.156430 119.280 -167.8056
860.346000 119.304 -167.2902
866.580422 119.328 -166.7881
872.860020 119.353 -166.2940
879.185124 119.377 -165.8027
885.556062 119.401 -165.3105
891.973166 119.427 -164.8157
898.436771 119.453 -164.3180
904.947215 119.481 -163.8182
911.504835 119.510 -163.3176
918.109975 119.541 -162.8173
924.762978 119.573 -162.3181
931.464192 119.607 -161.8204
938.213966 119.642 -161.3241
945.012651 119.679 -160.8294
951.860602 119.718 -160.3366
958.758176 119.758 -159.8460
965.705733 119.800 -159.3581
972.703635 119.844 -158.8735
979.752246 119.890 -158.3926
986.851935 119.937 -157.9160
994.003071 119.987 -157.4442
1001.206027 120.038 -156.9783
1008.461179 120.090 -156.5189
1015.768904 120.144 -156.0666
1023.129584 120.200 -155.6221
1030.543603 120.257 -155.1856
1038.011347 120.316 -154.7575
1045.533205 120.376 -154.3378
1053.109569 120.437 -153.9268
1060.740836 120.500 -153.5247
1068.427401 120.564 -153.1317
1076.169666 120.629 -152.7481
1083.968035 120.694 -152.3739
1091.822915 120.761 -152.0092
1099.734713 120.829 -151.6540
1107.703844 120.897 -151.3082
1115.730723 120.966 -150.9717
1123.815768 121.036 -150.6445
1131.959400 121.107 -150.3263
1140.162045 121.178 -150.0171
1148.424129 121.250 -149.7167
1156.746083 121.322 -149.4246
1165.128342 121.395 -149.1404
1173.571343 121.468 -148.8639
1182.075524 121.542 -148.5948
1190.641331 121.616 -148.3331
1199.269209 121.691 -148.0786
1207.959608 121.766 -147.8308
1216.712981 121.842 -147.5895
1225.529785 121.918 -147.3545
1234.410479 121.994 -147.1257
1243.355526 122.071 -146.9030
1252.365393 122.149 -146.6866
1261.440549 122.227 -146.4763
1270.581467 122.306 -146.2722
1279.788624 122.386 -146.0741
1289.062500 122.466 -145.8820
1298.403578 122.548 -145.6960
1307.812346 122.630 -145.5163
1317.289293 122.712 -145.3434
1326.834914 122.796 -145.1776
1336.449707 122.881 -145.0192
1346.134173 122.967 -144.8685
1355.888816 123.053 -144.7258
1365.714145 123.141 -144.5915
1375.610673 123.230 -144.4661
1385.578915 123.320 -144.3500
1395.619391 123.411 -144.2437
1405.732624 123.502 -144.1478
1415.919142 123.595 -144.0629
1426.179476 123.689 -143.9894
1436.514160 123.784 -143.9280
1446.923734 123.879 -143.8791
1457.408740 123.976 -143.8433
1467.969724 124.073 -143.8209
1478.607238 124.171 -143.8124
1489.321836 124.270 -143.8183
1500.114076 124.369 -143.8388
1510.984521 124.469 -143.8745
1521.933737 124.569 -143.9256
1532.962297 124.670 -143.9922
1544.070773 124.771 -144.0746
1555.259747 124.873 -144.1731
1566.529800 124.975 -144.2879
1577.881521 125.077 -144.4196
1589.315501 125.180 -144.5684
1600.832336 125.282 -144.7346
1612.432627 125.385 -144.9186
1624.116978 125.487 -145.1207
1635.886000 125.590 -145.3412
1647.740304 125.692 -145.5802
1659.680509 125.794 -145.8381
1671.707238 125.895 -146.1149
1683.821118 125.996 -146.4106
1696.022780 126.097 -146.7254
1708.312860 126.196 -147.0591
1720.692000 126.295 -147.4119
1733.160843 126.393 -147.7838
1745.720041 126.490 -148.1749
1758.370248 126.586 -148.5856
1771.112124 126.681 -149.0160
1783.946332 126.774 -149.4664
1796.873543 126.867 -149.9371
1809.894429 126.958 -150.4283
1823.009670 127.047 -150.9403
1836.219950 127.135 -151.4732
1849.525956 127.222 -152.0275
1862.928384 127.306 -152.6032
1876.427931 127.388 -153.2006
1890.025301 127.469 -153.8198
1903.721204 127.546 -154.4607
1917.516352 127.621 -155.1233
1931.411466 127.693 -155.8074
1945.407270 127.762 -156.5129
1959.504493 127.828 -157.2393
1973.703870 127.891 -157.9859
1988.006142 127.949 -158.7521
2002.412054 128.004 -159.5373
2016.922357 128.054 -160.3404
2031.537808 128.100 -161.1605
2046.259169 128.141 -161.9963
2061.087206 128.177 -162.8464
2076.022694 128.208 -163.7092
2091.066410 128.234 -164.5829
2106.219139 128.254 -165.4658
2121.481671 128.269 -166.3559
2136.854802 128.278 -167.2511
2152.339333 128.281 -168.1494
2167.936071 128.278 -169.0485
2183.645829 128.269 -169.9460
2199.469427 128.254 -170.8393
2215.407689 128.233 -171.7261
2231.461446 128.207 -172.6039
2247.631536 128.174 -173.4706
2263.918800 128.135 -174.3237
2280.324089 128.091 -175.1612
2296.848258 128.041 -175.9808
2313.492167 127.986 -176.7803
2330.256685 127.926 -177.5578
2347.142685 127.860 -178.3111
2364.151049 127.790 -179.0387
2381.282662 127.716 -179.7389
2398.538418 127.637 179.5895
2415.919216 127.555 178.9479
2433.425962 127.468 178.3373
2451.059570 127.379 177.7587
2468.820958 127.286 177.2130
2486.711052 127.191 176.7007
2504.730786 127.093 176.2224
2522.881098 126.993 175.7786
2541.162934 126.890 175.3694
2559.577248 126.787 174.9947
2578.125000 126.681 174.6548
2596.807157 126.575 174.3498
2615.624692 126.468 174.0797
2634.578586 126.360 173.8441
2653.669829 126.251 173.6429
2672.899414 126.143 173.4760
2692.268345 126.034 173.3433
2711.777632 125.925 173.2448
2731.428290 125.817 173.1807
2751.221345 125.709 173.1512
2771.157829 125.603 173.1564
2791.238781 125.497 173.1968
2811.465248 125.392 173.2727
2831.838284 125.289 173.3846
2852.358952 125.189 173.5328
2873.028321 125.090 173.7174
2893.847468 124.995 173.9377
2914.817480 124.904 174.1922
2935.939449 124.817 174.4782
2957.214476 124.736 174.7914
2978.643672 124.659 175.1263
3000.228152 124.589 175.4761
3021.969041 124.524 175.8337
3043.867475 124.465 176.1927
3065.924593 124.410 176.5481
3088.141547 124.359 176.8969
3110.519493 124.312 177.2382
3133.059600 124.266 177.5732
3155.763041 124.222 177.9046
3178.631001 124.179 178.2357
3201.664672 124.138 178.5696
3224.865254 124.098 178.9093
3248.233957 124.059 179.2567
3271.771999 124.022 179.6130
3295.480608 123.987 179.9786
3319.361019 123.954 -179.6467
3343.414477 123.924 -179.2630
3367.642236 123.896 -178.8705
3392.045560 123.871 -178.4695
3416.625721 123.848 -178.0601
3441.383999 123.829 -177.6428
3466.321686 123.813 -177.2182
3491.440082 123.800 -176.7867
3516.740496 123.791 -176.3493
3542.224247 123.785 -175.9072
3567.892664 123.784 -175.4617
3593.747085 123.786 -175.0143
3619.788858 123.793 -174.5665
3646.019340 123.805 -174.1200
3672.439900 123.820 -173.6762
3699.051913 123.841 -173.2369
3725.856768 123.865 -172.8035
3752.855862 123.895 -172.3776
3780.050603 123.929 -171.9606
3807.442408 123.969 -171.5541
3835.032705 124.013 -171.1598
3862.822933 124.063 -170.7798
3890.814540 124.118 -170.4171
3919.008986 124.179 -170.0750
3947.407741 124.247 -169.7576
3976.012284 124.320 -169.4696
4004.824108 124.400 -169.2169
4033.844715 124.485 -169.0057
4063.075616 124.577 -168.8431
4092.518337 124.674 -168.7365
4122.174412 124.777 -168.6931
4152.045387 124.883 -168.7200
4182.132820 124.992 -168.8234
4212.438278 125.103 -169.0091
4242.963342 125.214 -169.2818
4273.709604 125.324 -169.6451
4304.678665 125.431 -170.1010
4335.872141 125.532 -170.6498
4367.291658 125.626 -171.2896
4398.938854 125.710 -172.0162
4430.815378 125.783 -172.8222
4462.922893 125.841 -173.6976
4495.263072 125.885 -174.6289
4527.837601 125.910 -175.5985
4560.648179 125.916 -176.5843
4593.696515 125.903 -177.5584
4626.984334 125.869 -178.4872
4660.513370 125.818 -179.3319
4694.285371 125.754 179.9474
4728.302098 125.685 179.3843
4762.565324 125.622 178.9934
4797.076835 125.578 178.7558
4831.838432 125.566 178.6070
4866.851925 125.594 178.4389
4902.119140 125.661 178.1196
4937.641916 125.755 177.5286
4973.422105 125.859 176.5908
5009.461572 125.950 175.2943
5045.762195 126.009 173.6849
5082.325868 126.023 171.8463
5119.154496 125.985 169.8779
5156.250000 125.892 167.8764
5193.614313 125.747 165.9263
5231.249383 125.555 164.0951
5269.157173 125.324 162.4326
5307.339658 125.060 160.9714
5345.798829 124.773 159.7272
5384.536691 124.469 158.6985
5423.555263 124.155 157.8713
5462.856580 123.833 157.2301
5502.442691 123.505 156.7665
5542.315659 123.174 156.4789
5582.477563 122.841 156.3667
5622.930497 122.509 156.4264
5663.676569 122.180 156.6512
5704.717904 121.857 157.0314
5746.056642 121.541 157.5560
5787.694937 121.234 158.2135
5829.634960 120.937 158.9923
5871.878898 120.650 159.8816
5914.428953 120.375 160.8713
5957.287343 120.111 161.9522
6000.456303 119.859 163.1161
6043.938083 119.619 164.3557
6087.734950 119.390 165.6646
6131.849187 119.173 167.0371
6176.283094 118.968 168.4682
6221.038987 118.774 169.9537
6266.119200 118.591 171.4901
6311.526083 118.419 173.0746
6357.262002 118.259 174.7056
6403.329344 118.109 176.3818
6449.730508 117.970 178.1033
6496.467914 117.841 179.8704
6543.543998 117.724 -178.3160
6590.961215 117.619 -176.4545
6638.722037 117.525 -174.5432
6686.828954 117.445 -172.5805
6735.284473 117.378 -170.5649
6784.091120 117.325 -168.4959
6833.251441 117.290 -166.3747
6882.767998 117.272 -164.2047
6932.643372 117.273 -161.9920
6982.880164 117.295 -159.7456
7033.480992 117.340 -157.4776
7084.448495 117.407 -155.2022
7135.785329 117.497 -152.9341
7187.494171 117.610 -150.6864
7239.577717 117.746 -148.4691
7292.038681 117.904 -146.2891
7344.879799 118.083 -144.1500
7398.103826 118.284 -142.0540
7451.713536 118.507 -140.0029
7505.711724 118.754 -137.9992
7560.101205 119.024 -136.0475
7614.884815 119.321 -134.1545
7670.065409 119.645 -132.3294
7725.645865 119.999 -130.5840
7781.629080 120.384 -128.9341
7838.017972 120.804 -127.3996
7894.815481 121.261 -126.0063
7952.024569 121.756 -124.7864
8009.648217 122.293 -123.7803
8067.689429 122.871 -123.0378
8126.151233 123.490 -122.6176
8185.036674 124.147 -122.5869
8244.348824 124.836 -123.0180
8304.090774 125.547 -123.9845
8364.265639 126.265 -125.5539
8424.876556 126.974 -127.7801
8485.926684 127.654 -130.6940
8547.419207 128.280 -134.2954
8609.357330 128.829 -138.5457
8671.744282 129.280 -143.3633
8734.583316 129.612 -148.6237
8797.877707 129.812 -154.1645
8861.630756 129.873 -159.7974
8925.845785 129.796 -165.3252
8990.526143 129.591 -170.5605
9055.675202 129.274 -175.3431
9121.296357 128.867 -179.5527
9187.393031 128.396 176.8852
9253.968668 127.886 173.9988
9321.026740 127.364 171.7738
9388.570742 126.852 170.1607
9456.604196 126.369 169.0841
9525.130648 125.930 168.4534
9594.153671 125.544 168.1732
9663.676863 125.217 168.1507
9733.703850 124.952 168.2996
9804.238280 124.749 168.5396
9875.283832 124.609 168.7938
9946.844210 124.530 168.9858
10018.923143 124.511 169.0376
10091.524390 124.548 168.8693
10164.651736 124.634 168.4004
10238.308993 124.762 167.5531
10312.500000 124.918 166.2570
10387.228626 125.086 164.4561
10462.498767 125.247 162.1177
10538.314345 125.376 159.2449
10614.679315 125.449 155.8906
10691.597657 125.441 152.1722
10769.073381 125.331 148.2858
10847.110526 125.114 144.5060
10925.713161 124.808 141.1428
11004.885382 124.467 138.4033
11084.631318 124.170 136.1749
11164.955126 123.967 133.9369
11245.860993 123.837 131.0628
11327.353138 123.692 127.2835
11409.435808 123.448 122.7852
11492.113283 123.056 117.9698
11575.389873 122.509 113.2299
11659.269920 121.821 108.8569
11743.757796 121.019 105.0348
11828.857906 120.132 101.8600
11914.574686 119.190 99.3635
12000.912606 118.219 97.5258
12087.876166 117.245 96.2885
12175.469900 116.289 95.5614
12263.698373 115.367 95.2302
12352.566187 114.494 95.1635
12442.077974 113.676 95.2201
12532.238400 112.916 95.2548
12623.052165 112.213 95.1250
12714.524005 111.559 94.6974
12806.658687 110.940 93.8563
12899.461015 110.339 92.5108
12992.935827 109.736 90.5993
13087.087996 109.111 88.0839
13181.922430 108.446 84.9315
13277.444074 107.729 81.0869
13373.657907 106.952 76.4498
13470.568945 106.111 70.8585
13568.182241 105.210 64.0566
13666.502883 104.274 55.6295
13765.535996 103.361 44.9293
13865.286744 102.578 31.1112
13965.760328 102.074 13.6461
14066.961984 101.980 -6.4365
14168.896989 102.310 -26.2123
14271.570658 102.930 -43.2384
14374.988342 103.656 -57.1326
14479.155433 104.348 -68.5182
14584.077362 104.953 -77.9735
14689.759598 105.481 -85.8969
14796.207652 105.957 -92.6464
14903.427072 106.392 -98.5779
15011.423448 106.776 -103.9999
15120.202410 107.091 -109.1251
15229.769630 107.314 -114.0533
15340.130819 107.428 -118.7832
15451.291730 107.425 -123.2396
15563.258160 107.307 -127.3101
15676.035944 107.085 -130.8802
15789.630962 106.775 -133.8601
15904.049137 106.400 -136.1995
16019.296433 105.977 -137.8880
16135.378859 105.526 -138.9445
16252.302465 105.057 -139.3967
16370.073348 104.580 -139.2576
16488.697648 104.103 -138.5089
16608.181548 103.637 -137.1069
16728.531278 103.201 -135.0131
16849.753112 102.822 -132.2413
16971.853368 102.529 -128.8929
17094.838414 102.350 -125.1644
17218.714660 102.300 -121.3217
17343.488565 102.386 -117.6584
17469.166632 102.595 -114.4507
17595.755415 102.909 -111.9236
17723.261512 103.299 -110.2363
17851.691571 103.734 -109.4847
17981.052287 104.180 -109.7211
18111.350404 104.603 -110.9718
18242.592715 104.963 -113.2216
18374.786062 105.215 -116.3734
18507.937336 105.321 -120.2325
18642.053479 105.252 -124.5225
18777.141484 104.994 -128.9199
18913.208391 104.548 -133.0969
19050.261296 103.927 -136.7593
19188.307342 103.158 -139.6766
19327.353727 102.278 -141.7028
19467.407699 101.331 -142.7979
19608.476560 100.382 -143.0459
19750.567664 99.511 -142.6711
19893.688419 98.828 -142.0342
20037.846286 98.447 -141.5602
