* Measurement data measured by REW V5.20.9
* Source: Input device not selected, no input selected, L, volume: no control. Timing signal peak level -42,1 dBFS, measurement signal peak level -10,4 dBFS
* Format: 256k Log Swept Sine, 1 sweep at -12,0 dBFS using an acoustic timing reference
* Dated: 08.05.2023 13:17:28
* REW Settings:
*  C-weighting compensation: Off
*  Target level: 75.0 dB
* Note: Delay -0,0201 ms (-6,9 mm, -0,27 in) using estimated IR delay relative to Acoustic reference on  L with no timing offset
* Measurement: 1111
* Smoothing: 1/12 octave
* Frequency Step: 96 ppo
* Start Frequency: 20.187378 Hz
*
* Freq(Hz) SPL(dB) Phase(degrees)
20.187378 115.820 -113.7291
20.333664 115.838 -113.9342
20.481010 115.863 -114.2369
20.629424 115.895 -114.6099
20.778913 115.930 -115.0306
20.929486 115.967 -115.4835
21.081150 116.005 -115.9591
21.233912 116.043 -116.4522
21.387782 116.080 -116.9596
21.542767 116.115 -117.4789
21.698874 116.149 -118.0075
21.856113 116.181 -118.5420
22.014492 116.211 -119.0788
22.174018 116.240 -119.6134
22.334700 116.268 -120.1417
22.496546 116.296 -120.6599
22.659566 116.324 -121.1651
22.823766 116.353 -121.6558
22.989157 116.385 -122.1322
23.155745 116.418 -122.5960
23.323542 116.454 -123.0506
23.492554 116.492 -123.5003
23.662790 116.532 -123.9500
23.834261 116.573 -124.4042
24.006973 116.613 -124.8669
24.180938 116.652 -125.3404
24.356163 116.688 -125.8256
24.532658 116.720 -126.3214
24.710431 116.747 -126.8255
24.889493 116.769 -127.3344
25.069853 116.786 -127.8445
25.251519 116.799 -128.3528
25.434502 116.810 -128.8573
25.618811 116.820 -129.3580
25.804456 116.831 -129.8567
25.991445 116.845 -130.3572
26.179790 116.863 -130.8644
26.369500 116.887 -131.3835
26.560584 116.915 -131.9187
26.753053 116.949 -132.4724
26.946917 116.988 -133.0439
27.142185 117.029 -133.6294
27.338869 117.071 -134.2222
27.536977 117.112 -134.8131
27.736522 117.152 -135.3922
27.937512 117.188 -135.9498
28.139959 117.221 -136.4783
28.343872 117.249 -136.9729
28.549264 117.274 -137.4325
28.756143 117.293 -137.8600
28.964522 117.309 -138.2612
29.174411 117.322 -138.6445
29.385821 117.331 -139.0187
29.598763 117.337 -139.3927
29.813248 117.341 -139.7732
30.029287 117.343 -140.1648
30.246891 117.344 -140.5694
30.466073 117.345 -140.9864
30.686842 117.346 -141.4133
30.909212 117.348 -141.8467
31.133193 117.353 -142.2827
31.358797 117.360 -142.7179
31.586035 117.370 -143.1497
31.814921 117.383 -143.5766
32.045465 117.398 -143.9982
32.277680 117.414 -144.4151
32.511577 117.431 -144.8288
32.747169 117.447 -145.2415
32.984469 117.461 -145.6557
33.223488 117.474 -146.0740
33.464239 117.485 -146.4986
33.706735 117.494 -146.9309
33.950987 117.501 -147.3714
34.197010 117.507 -147.8196
34.444816 117.513 -148.2741
34.694417 117.519 -148.7326
34.945827 117.526 -149.1928
35.199059 117.533 -149.6523
35.454126 117.542 -150.1090
35.711041 117.551 -150.5614
35.969818 117.560 -151.0082
36.230470 117.568 -151.4489
36.493011 117.574 -151.8831
36.757455 117.579 -152.3110
37.023814 117.581 -152.7334
37.292104 117.581 -153.1512
37.562338 117.580 -153.5655
37.834530 117.577 -153.9772
38.108695 117.573 -154.3868
38.384846 117.568 -154.7940
38.662999 117.565 -155.1979
38.943167 117.562 -155.5969
39.225365 117.561 -155.9895
39.509608 117.562 -156.3741
39.795911 117.564 -156.7498
40.084289 117.568 -157.1160
40.374756 117.571 -157.4731
40.667328 117.575 -157.8222
40.962020 117.576 -158.1658
41.258848 117.576 -158.5073
41.557827 117.573 -158.8510
41.858972 117.566 -159.2013
42.162299 117.556 -159.5618
42.467824 117.543 -159.9343
42.775564 117.528 -160.3182
43.085533 117.511 -160.7103
43.397749 117.494 -161.1060
43.712227 117.478 -161.5002
44.028983 117.465 -161.8891
44.348036 117.456 -162.2713
44.669400 117.451 -162.6486
44.993093 117.449 -163.0253
45.319131 117.449 -163.4071
45.647532 117.450 -163.7993
45.978313 117.450 -164.2038
46.311491 117.448 -164.6188
46.647083 117.444 -165.0378
46.985107 117.438 -165.4521
47.325581 117.434 -165.8539
47.668521 117.432 -166.2387
48.013947 117.434 -166.6066
48.361876 117.439 -166.9603
48.712326 117.445 -167.3024
49.065315 117.450 -167.6321
49.420863 117.450 -167.9456
49.778987 117.444 -168.2387
50.139706 117.432 -168.5114
50.503039 117.416 -168.7712
50.869005 117.399 -169.0318
51.237623 117.381 -169.3085
51.608912 117.364 -169.6120
51.982891 117.347 -169.9432
52.359580 117.330 -170.2941
52.739000 117.313 -170.6514
53.121168 117.296 -171.0029
53.506106 117.277 -171.3411
53.893833 117.258 -171.6638
54.284370 117.236 -171.9711
54.677737 117.211 -172.2630
55.073955 117.185 -172.5386
55.473043 117.157 -172.7986
55.875024 117.132 -173.0486
56.279917 117.113 -173.3001
56.687745 117.099 -173.5667
57.098527 117.092 -173.8574
57.512287 117.088 -174.1708
57.929045 117.085 -174.4946
58.348822 117.080 -174.8124
58.771642 117.074 -175.1129
59.197525 117.065 -175.3955
59.626495 117.054 -175.6697
60.058573 117.041 -175.9484
60.493782 117.026 -176.2397
60.932145 117.009 -176.5444
61.373685 116.992 -176.8571
61.818424 116.976 -177.1713
62.266386 116.961 -177.4816
62.717593 116.947 -177.7844
63.172071 116.932 -178.0755
63.629842 116.914 -178.3511
64.090930 116.894 -178.6098
64.555359 116.871 -178.8552
65.023154 116.847 -179.0952
65.494339 116.824 -179.3389
65.968938 116.800 -179.5919
66.446976 116.777 -179.8533
66.928478 116.754 179.8817
67.413469 116.729 179.6179
67.901975 116.705 179.3580
68.394021 116.679 179.1024
68.889632 116.653 178.8510
69.388835 116.627 178.6049
69.891655 116.602 178.3644
70.398118 116.578 178.1292
70.908252 116.555 177.8972
71.422083 116.532 177.6665
71.939636 116.510 177.4354
72.460941 116.487 177.2029
72.986023 116.464 176.9695
73.514909 116.440 176.7369
74.047629 116.415 176.5074
74.584208 116.390 176.2831
75.124676 116.364 176.0643
75.669061 116.338 175.8499
76.217390 116.312 175.6379
76.769692 116.285 175.4268
77.325997 116.258 175.2161
77.886333 116.231 175.0059
78.450730 116.203 174.7969
79.019216 116.175 174.5906
79.591822 116.146 174.3884
80.168577 116.118 174.1920
80.749512 116.090 174.0022
81.334656 116.064 173.8182
81.924040 116.037 173.6381
82.517696 116.011 173.4601
83.115653 115.984 173.2833
83.717943 115.957 173.1077
84.324598 115.930 172.9327
84.935649 115.902 172.7582
85.551128 115.875 172.5847
86.171066 115.848 172.4135
86.795497 115.822 172.2455
87.424453 115.795 172.0801
88.057967 115.768 171.9158
88.696071 115.740 171.7516
89.338800 115.711 171.5882
89.986185 115.682 171.4267
90.638262 115.652 171.2680
91.295065 115.622 171.1132
91.956626 115.592 170.9628
92.622982 115.561 170.8176
93.294166 115.531 170.6773
93.970214 115.501 170.5411
94.651161 115.470 170.4077
95.337042 115.440 170.2764
96.027894 115.409 170.1468
96.723752 115.378 170.0186
97.424652 115.348 169.8921
98.130631 115.318 169.7678
98.841726 115.287 169.6468
99.557974 115.257 169.5310
100.279412 115.226 169.4227
101.006078 115.195 169.3226
101.738010 115.164 169.2294
102.475245 115.134 169.1414
103.217823 115.105 169.0576
103.965782 115.076 168.9781
104.719161 115.047 168.9027
105.477999 115.018 168.8304
106.242336 114.991 168.7588
107.012212 114.963 168.6850
107.787666 114.937 168.6080
108.568740 114.911 168.5291
109.355474 114.885 168.4509
110.147909 114.859 168.3751
110.946086 114.833 168.3010
111.750047 114.807 168.2260
112.559834 114.780 168.1476
113.375489 114.752 168.0687
114.197055 114.722 167.9964
115.024574 114.692 167.9356
115.858089 114.663 167.8849
116.697645 114.635 167.8384
117.543284 114.609 167.7905
118.395051 114.585 167.7375
119.252990 114.561 167.6804
120.117147 114.537 167.6221
120.987565 114.513 167.5649
121.864291 114.488 167.5082
122.747370 114.464 167.4495
123.636848 114.439 167.3862
124.532771 114.414 167.3179
125.435187 114.389 167.2458
126.344142 114.364 167.1720
127.259684 114.338 167.0988
128.181860 114.313 167.0272
129.110718 114.287 166.9558
130.046308 114.262 166.8842
130.988677 114.237 166.8142
131.937875 114.212 166.7502
132.893951 114.186 166.6954
133.856956 114.158 166.6494
134.826938 114.130 166.6082
135.803950 114.100 166.5680
136.788041 114.071 166.5269
137.779264 114.040 166.4845
138.777669 114.010 166.4413
139.783309 113.980 166.3982
140.796237 113.950 166.3564
141.816504 113.920 166.3168
142.844165 113.890 166.2794
143.879273 113.861 166.2443
144.921881 113.832 166.2117
145.972045 113.802 166.1819
147.029819 113.773 166.1548
148.095257 113.743 166.1306
149.168417 113.713 166.1096
150.249353 113.683 166.0924
151.338121 113.653 166.0794
152.434780 113.623 166.0706
153.539385 113.593 166.0654
154.651995 113.563 166.0634
155.772667 113.533 166.0640
156.901460 113.503 166.0670
158.038432 113.473 166.0727
159.183644 113.443 166.0815
160.337154 113.413 166.0936
161.499023 113.384 166.1095
162.669312 113.354 166.1293
163.848081 113.324 166.1536
165.035392 113.295 166.1824
166.231306 113.266 166.2155
167.435887 113.237 166.2523
168.649196 113.209 166.2924
169.871298 113.181 166.3358
171.102255 113.153 166.3821
172.342133 113.126 166.4313
173.590995 113.099 166.4835
174.848907 113.072 166.5385
176.115934 113.046 166.5957
177.392143 113.021 166.6542
178.677599 112.996 166.7127
179.972371 112.971 166.7711
181.276525 112.948 166.8295
182.590129 112.925 166.8881
183.913252 112.903 166.9467
185.245964 112.881 167.0049
186.588332 112.860 167.0630
187.940428 112.839 167.1211
189.302322 112.819 167.1791
190.674085 112.799 167.2369
192.055788 112.778 167.2941
193.447503 112.758 167.3504
194.849303 112.738 167.4055
196.261262 112.718 167.4593
197.683452 112.698 167.5116
199.115948 112.678 167.5621
200.558824 112.658 167.6108
202.012156 112.637 167.6581
203.476019 112.617 167.7049
204.950490 112.597 167.7515
206.435646 112.577 167.7980
207.931564 112.556 167.8444
209.438322 112.535 167.8909
210.955998 112.514 167.9381
212.484672 112.493 167.9869
214.024424 112.472 168.0375
215.575333 112.450 168.0901
217.137481 112.428 168.1448
218.710948 112.406 168.2016
220.295818 112.384 168.2606
221.892172 112.362 168.3217
223.500094 112.340 168.3846
225.119668 112.318 168.4494
226.750978 112.296 168.5160
228.394109 112.274 168.5845
230.049147 112.252 168.6555
231.716178 112.230 168.7289
233.395289 112.208 168.8049
235.086567 112.187 168.8830
236.790102 112.166 168.9628
238.505980 112.144 169.0443
240.234293 112.123 169.1274
241.975130 112.102 169.2124
243.728581 112.081 169.2993
245.494739 112.060 169.3881
247.273695 112.039 169.4783
249.065542 112.018 169.5693
250.870374 111.998 169.6608
252.688284 111.978 169.7527
254.519367 111.958 169.8458
256.363720 111.939 169.9407
258.221437 111.919 170.0378
260.092616 111.900 170.1369
261.977354 111.881 170.2378
263.875750 111.863 170.3400
265.787903 111.844 170.4431
267.713911 111.825 170.5469
269.653877 111.806 170.6517
271.607900 111.788 170.7575
273.576083 111.770 170.8643
275.558528 111.752 170.9721
277.555338 111.734 171.0807
279.566619 111.716 171.1906
281.592474 111.699 171.3019
283.633009 111.681 171.4149
285.688331 111.664 171.5296
287.758546 111.647 171.6456
289.843763 111.630 171.7624
291.944090 111.614 171.8795
294.059638 111.597 171.9968
296.190515 111.581 172.1143
298.336833 111.564 172.2322
300.498705 111.548 172.3507
302.676243 111.532 172.4701
304.869559 111.516 172.5906
307.078770 111.501 172.7122
309.303989 111.486 172.8353
311.545334 111.471 172.9598
313.802919 111.456 173.0858
316.076865 111.441 173.2131
318.367288 111.427 173.3411
320.674309 111.412 173.4694
322.998047 111.398 173.5979
325.338624 111.383 173.7270
327.696162 111.369 173.8570
330.070783 111.355 173.9881
332.462612 111.341 174.1202
334.871773 111.327 174.2530
337.298392 111.313 174.3866
339.742595 111.300 174.5212
342.204510 111.286 174.6571
344.684265 111.273 174.7941
347.181989 111.259 174.9319
349.697813 111.246 175.0701
352.231868 111.233 175.2090
354.784285 111.221 175.3489
357.355198 111.209 175.4904
359.944741 111.196 175.6330
362.553049 111.184 175.7765
365.180258 111.172 175.9204
367.826505 111.161 176.0648
370.491927 111.149 176.2096
373.176665 111.137 176.3550
375.880856 111.126 176.5013
378.604644 111.115 176.6485
381.348169 111.104 176.7964
384.111575 111.093 176.9448
386.895006 111.082 177.0937
389.698607 111.071 177.2432
392.522524 111.060 177.3939
395.366904 111.050 177.5463
398.231895 111.039 177.7003
401.117648 111.029 177.8557
404.024312 111.018 178.0121
406.952038 111.008 178.1697
409.900981 110.998 178.3282
412.871292 110.989 178.4872
415.863128 110.979 178.6464
418.876643 110.970 178.8058
421.911996 110.961 178.9655
424.969344 110.951 179.1257
428.048847 110.942 179.2870
431.150666 110.933 179.4492
434.274961 110.925 179.6127
437.421897 110.916 179.7774
440.591636 110.908 179.9431
443.784345 110.900 -179.8902
447.000189 110.892 -179.7225
450.239337 110.884 -179.5537
453.501956 110.876 -179.3837
456.788219 110.868 -179.2127
460.098294 110.860 -179.0410
463.432356 110.852 -178.8687
466.790578 110.845 -178.6956
470.173135 110.838 -178.5217
473.580203 110.830 -178.3467
477.011961 110.823 -178.1705
480.468586 110.817 -177.9931
483.950259 110.810 -177.8144
487.457163 110.803 -177.6343
490.989478 110.797 -177.4529
494.547390 110.790 -177.2703
498.131084 110.784 -177.0867
501.740748 110.778 -176.9020
505.376568 110.772 -176.7160
509.038735 110.766 -176.5288
512.727439 110.761 -176.3403
516.442874 110.755 -176.1507
520.185232 110.750 -175.9599
523.954708 110.745 -175.7683
527.751500 110.740 -175.5757
531.575805 110.735 -175.3820
535.427822 110.730 -175.1871
539.307753 110.725 -174.9907
543.215800 110.721 -174.7924
547.152165 110.716 -174.5923
551.117055 110.712 -174.3907
555.110677 110.708 -174.1879
559.133237 110.705 -173.9841
563.184947 110.701 -173.7791
567.266018 110.697 -173.5730
571.376661 110.694 -173.3658
575.517092 110.691 -173.1571
579.687526 110.688 -172.9467
583.888181 110.686 -172.7346
588.119275 110.683 -172.5208
592.381030 110.681 -172.3056
596.673667 110.679 -172.0892
600.997410 110.676 -171.8716
605.352485 110.674 -171.6525
609.739119 110.672 -171.4322
614.157540 110.671 -171.2108
618.607979 110.669 -170.9888
623.090667 110.668 -170.7664
627.605839 110.666 -170.5443
632.153730 110.664 -170.3224
636.734576 110.662 -170.1003
641.348617 110.660 -169.8770
645.996094 110.656 -169.6506
650.677248 110.652 -169.4188
655.392323 110.647 -169.1784
660.141566 110.641 -168.9256
664.925224 110.634 -168.6568
669.743546 110.629 -168.3702
674.596784 110.624 -168.0671
679.485191 110.622 -167.7514
684.409020 110.622 -167.4272
689.368530 110.623 -167.0964
694.363979 110.627 -166.7590
699.395626 110.633 -166.4137
704.463736 110.641 -166.0619
709.568570 110.653 -165.7092
714.710396 110.668 -165.3652
719.889483 110.686 -165.0394
725.106099 110.705 -164.7362
730.360516 110.724 -164.4534
735.653010 110.741 -164.1844
740.983855 110.757 -163.9215
746.353329 110.771 -163.6585
751.761713 110.785 -163.3913
757.209288 110.797 -163.1179
762.696339 110.810 -162.8378
768.223151 110.822 -162.5509
773.790013 110.835 -162.2579
779.397214 110.849 -161.9592
785.045047 110.863 -161.6557
790.733808 110.878 -161.3477
796.463791 110.894 -161.0356
802.235296 110.911 -160.7197
808.048623 110.929 -160.4004
813.904077 110.947 -160.0783
819.801961 110.967 -159.7535
825.742584 110.988 -159.4263
831.726255 111.010 -159.0964
837.753287 111.033 -158.7642
843.823992 111.057 -158.4299
849.938689 111.082 -158.0937
856.097695 111.108 -157.7558
862.301332 111.136 -157.4165
868.549922 111.165 -157.0764
874.843793 111.195 -156.7361
881.183272 111.226 -156.3960
887.568689 111.259 -156.0564
894.000378 111.293 -155.7172
900.478673 111.328 -155.3788
907.003913 111.365 -155.0416
913.576437 111.403 -154.7060
920.196588 111.443 -154.3724
926.864712 111.484 -154.0414
933.581156 111.527 -153.7138
940.346270 111.571 -153.3903
947.160407 111.617 -153.0712
954.023921 111.664 -152.7565
960.937172 111.713 -152.4466
967.900519 111.763 -152.1419
974.914325 111.815 -151.8426
981.978956 111.868 -151.5495
989.094780 111.922 -151.2631
996.262169 111.977 -150.9845
1003.481495 112.033 -150.7141
1010.753136 112.091 -150.4524
1018.077470 112.150 -150.1992
1025.454879 112.209 -149.9546
1032.885748 112.270 -149.7191
1040.370463 112.332 -149.4932
1047.909417 112.395 -149.2774
1055.503000 112.458 -149.0721
1063.151610 112.522 -148.8776
1070.855645 112.587 -148.6940
1078.615506 112.652 -148.5211
1086.431599 112.717 -148.3589
1094.304330 112.783 -148.2070
1102.234110 112.848 -148.0656
1110.221353 112.914 -147.9350
1118.266475 112.980 -147.8153
1126.369895 113.046 -147.7064
1134.532035 113.112 -147.6082
1142.753322 113.178 -147.5207
1151.034184 113.244 -147.4433
1159.375052 113.309 -147.3752
1167.776361 113.374 -147.3159
1176.238550 113.438 -147.2651
1184.762060 113.502 -147.2227
1193.347334 113.566 -147.1883
1201.994821 113.629 -147.1615
1210.704971 113.691 -147.1417
1219.478238 113.752 -147.1285
1228.315080 113.813 -147.1216
1237.215957 113.873 -147.1206
1246.181334 113.933 -147.1250
1255.211678 113.992 -147.1344
1264.307459 114.050 -147.1484
1273.469152 114.107 -147.1666
1282.697235 114.164 -147.1886
1291.992188 114.220 -147.2138
1301.354495 114.275 -147.2419
1310.784647 114.330 -147.2724
1320.283132 114.384 -147.3052
1329.850448 114.437 -147.3400
1339.487093 114.490 -147.3763
1349.193569 114.542 -147.4141
1358.970381 114.594 -147.4532
1368.818041 114.645 -147.4933
1378.737061 114.696 -147.5344
1388.727958 114.747 -147.5764
1398.791253 114.797 -147.6190
1408.927471 114.846 -147.6620
1419.137140 114.896 -147.7048
1429.420793 114.945 -147.7473
1439.778965 114.993 -147.7896
1450.212197 115.042 -147.8323
1460.721033 115.091 -147.8757
1471.306019 115.140 -147.9202
1481.967709 115.188 -147.9659
1492.706658 115.237 -148.0120
1503.523426 115.286 -148.0580
1514.418576 115.335 -148.1033
1525.392678 115.384 -148.1480
1536.446302 115.433 -148.1926
1547.580025 115.482 -148.2378
1558.794428 115.531 -148.2841
1570.090095 115.580 -148.3320
1581.467615 115.629 -148.3811
1592.927581 115.679 -148.4313
1604.470591 115.729 -148.4821
1616.097246 115.779 -148.5336
1627.808153 115.830 -148.5864
1639.603922 115.881 -148.6411
1651.485168 115.932 -148.6982
1663.452510 115.984 -148.7579
1675.506573 116.036 -148.8200
1687.647984 116.088 -148.8844
1699.877377 116.141 -148.9509
1712.195390 116.194 -149.0196
1724.602663 116.247 -149.0907
1737.099845 116.301 -149.1648
1749.687587 116.355 -149.2427
1762.366544 116.410 -149.3253
1775.137379 116.465 -149.4128
1788.000756 116.521 -149.5048
1800.957346 116.577 -149.6010
1814.007826 116.634 -149.7012
1827.152874 116.691 -149.8058
1840.393177 116.748 -149.9153
1853.729425 116.806 -150.0304
1867.162312 116.864 -150.1517
1880.692540 116.923 -150.2794
1894.320813 116.982 -150.4132
1908.047843 117.041 -150.5528
1921.874344 117.101 -150.6982
1935.801038 117.161 -150.8497
1949.828650 117.221 -151.0080
1963.957912 117.281 -151.1740
1978.189561 117.342 -151.3481
1992.524338 117.403 -151.5306
2006.962991 117.464 -151.7213
2021.506272 117.526 -151.9202
2036.154940 117.587 -152.1271
2050.909758 117.649 -152.3427
2065.771495 117.711 -152.5676
2080.740927 117.773 -152.8022
2095.818833 117.835 -153.0466
2111.006001 117.896 -153.3006
2126.303220 117.958 -153.5641
2141.711290 118.019 -153.8372
2157.231013 118.080 -154.1198
2172.863198 118.141 -154.4119
2188.608660 118.201 -154.7134
2204.468221 118.261 -155.0244
2220.442706 118.320 -155.3453
2236.532950 118.379 -155.6762
2252.739789 118.438 -156.0168
2269.064070 118.496 -156.3667
2285.506644 118.553 -156.7259
2302.068367 118.610 -157.0946
2318.750104 118.666 -157.4735
2335.552723 118.722 -157.8631
2352.477101 118.776 -158.2635
2369.524119 118.830 -158.6744
2386.694668 118.883 -159.0956
2403.989641 118.935 -159.5263
2421.409941 118.986 -159.9664
2438.956476 119.036 -160.4158
2456.630160 119.084 -160.8745
2474.431915 119.131 -161.3428
2492.362668 119.178 -161.8205
2510.423356 119.223 -162.3074
2528.614918 119.267 -162.8033
2546.938304 119.310 -163.3078
2565.394469 119.352 -163.8206
2583.984375 119.392 -164.3411
2602.708991 119.430 -164.8696
2621.569293 119.467 -165.4064
2640.566265 119.503 -165.9521
2659.700897 119.537 -166.5065
2678.974186 119.570 -167.0693
2698.387137 119.601 -167.6399
2717.940763 119.631 -168.2184
2737.636082 119.659 -168.8051
2757.474121 119.685 -169.3998
2777.455915 119.709 -170.0027
2797.582506 119.732 -170.6139
2817.854942 119.753 -171.2340
2838.274281 119.771 -171.8635
2858.841586 119.788 -172.5026
2879.557931 119.802 -173.1514
2900.424394 119.814 -173.8101
2921.442065 119.823 -174.4790
2942.612039 119.828 -175.1578
2963.935418 119.829 -175.8448
2985.413316 119.825 -176.5355
3007.046852 119.816 -177.2216
3028.837153 119.800 -177.8895
3050.785356 119.779 -178.5202
3072.892604 119.755 -179.0946
3095.160050 119.733 -179.6049
3117.588856 119.717 179.9336
3140.180190 119.710 179.4824
3162.935230 119.711 178.9988
3185.855163 119.716 178.4556
3208.941182 119.721 177.8466
3232.194493 119.722 177.1806
3255.616307 119.719 176.4728
3279.207844 119.708 175.7383
3302.970336 119.692 174.9896
3326.905021 119.670 174.2355
3351.013146 119.643 173.4818
3375.295969 119.610 172.7324
3399.754755 119.574 171.9897
3424.390779 119.533 171.2557
3449.205326 119.489 170.5319
3474.199690 119.441 169.8191
3499.375173 119.390 169.1187
3524.733088 119.336 168.4318
3550.274757 119.280 167.7592
3576.001511 119.221 167.1013
3601.914692 119.162 166.4575
3628.015651 119.100 165.8263
3654.305748 119.039 165.2052
3680.786354 118.977 164.5901
3707.458849 118.914 163.9763
3734.324624 118.851 163.3591
3761.385080 118.787 162.7348
3788.641627 118.722 162.1008
3816.095686 118.654 161.4558
3843.748688 118.583 160.8003
3871.602076 118.509 160.1362
3899.657300 118.430 159.4666
3927.915825 118.347 158.7952
3956.379122 118.259 158.1252
3985.048676 118.166 157.4600
4013.925981 118.068 156.8024
4043.012544 117.965 156.1549
4072.309879 117.858 155.5195
4101.819515 117.746 154.8978
4131.542990 117.630 154.2913
4161.481854 117.509 153.7014
4191.637667 117.384 153.1293
4222.012001 117.255 152.5763
4252.606441 117.122 152.0432
4283.422580 116.985 151.5312
4314.462026 116.844 151.0414
4345.726396 116.698 150.5750
4377.217321 116.549 150.1332
4408.936442 116.396 149.7172
4440.885413 116.239 149.3290
4473.065899 116.078 148.9709
4505.479579 115.912 148.6458
4538.128141 115.743 148.3567
4571.013288 115.570 148.1069
4604.136735 115.394 147.9002
4637.500207 115.215 147.7401
4671.105446 115.034 147.6288
4704.954201 114.852 147.5679
4739.048239 114.669 147.5569
4773.389336 114.486 147.5946
4807.979283 114.304 147.6781
4842.819883 114.124 147.8036
4877.912952 113.946 147.9665
4913.260320 113.770 148.1622
4948.863830 113.596 148.3869
4984.725337 113.424 148.6373
5020.846712 113.253 148.9110
5057.229836 113.083 149.2062
5093.876609 112.915 149.5224
5130.788938 112.746 149.8597
5167.968750 112.577 150.2196
5205.417982 112.408 150.6040
5243.138586 112.238 151.0161
5281.132530 112.067 151.4602
5319.401793 111.894 151.9416
5357.948371 111.720 152.4661
5396.774274 111.546 153.0400
5435.881525 111.371 153.6689
5475.272163 111.198 154.3574
5514.948243 111.026 155.1086
5554.911831 110.857 155.9225
5595.165012 110.693 156.7970
5635.709884 110.534 157.7276
5676.548561 110.382 158.7087
5717.683172 110.237 159.7335
5759.115861 110.100 160.7950
5800.848789 109.970 161.8865
5842.884130 109.848 163.0027
5885.224077 109.733 164.1396
5927.870837 109.626 165.2944
5970.826633 109.524 166.4651
6014.093704 109.429 167.6509
6057.674306 109.340 168.8516
6101.570711 109.257 170.0676
6145.785208 109.179 171.2993
6190.320101 109.107 172.5473
6235.177712 109.041 173.8123
6280.360380 108.980 175.0953
6325.870460 108.925 176.3974
6371.710325 108.877 177.7195
6417.882365 108.834 179.0623
6464.388986 108.799 -179.5737
6511.232613 108.770 -178.1879
6558.415689 108.750 -176.7805
6605.940673 108.737 -175.3520
6653.810042 108.733 -173.9034
6702.026292 108.739 -172.4358
6750.591937 108.754 -170.9510
6799.509509 108.779 -169.4505
6848.781558 108.815 -167.9358
6898.410653 108.862 -166.4084
6948.399380 108.920 -164.8695
6998.750346 108.992 -163.3209
7049.466176 109.077 -161.7652
7100.549514 109.177 -160.2066
7152.003023 109.293 -158.6503
7203.829385 109.425 -157.1026
7256.031302 109.574 -155.5707
7308.611496 109.742 -154.0618
7361.572708 109.929 -152.5832
7414.917698 110.135 -151.1424
7468.649249 110.363 -149.7484
7522.770160 110.613 -148.4120
7577.283253 110.888 -147.1469
7632.191371 111.189 -145.9696
7687.497376 111.517 -144.9007
7743.204151 111.874 -143.9657
7799.314600 112.260 -143.1949
7855.831649 112.676 -142.6240
7912.758244 113.122 -142.2926
7970.097352 113.595 -142.2444
8027.851962 114.093 -142.5258
8086.025087 114.612 -143.1866
8144.619758 115.144 -144.2781
8203.639030 115.680 -145.8499
8263.085980 116.207 -147.9449
8322.963708 116.712 -150.5920
8383.275334 117.175 -153.7995
8444.024002 117.577 -157.5474
8505.212881 117.900 -161.7825
8566.845160 118.126 -166.4166
8628.924051 118.239 -171.3284
8691.452792 118.232 -176.3707
8754.434642 118.100 178.6179
8817.872884 117.846 173.7988
8881.770826 117.481 169.3203
8946.131799 117.018 165.3066
9010.959157 116.475 161.8532
9076.256282 115.871 159.0251
9142.026576 115.227 156.8553
9208.273470 114.567 155.3414
9275.000415 113.913 154.4358
9342.210891 113.283 154.0397
9409.908403 112.689 154.0235
9478.096478 112.133 154.2789
9546.778672 111.609 154.7564
9615.958566 111.111 155.4485
9685.639765 110.638 156.3559
9755.825904 110.191 157.4690
9826.520640 109.772 158.7669
9897.727659 109.381 160.2235
9969.450674 109.019 161.8148
10041.693423 108.685 163.5227
10114.459673 108.378 165.3359
10187.753217 108.099 167.2461
10261.577877 107.847 169.2429
10335.937500 107.624 171.3110
10410.835964 107.429 173.4326
10486.277173 107.262 175.5920
10562.265060 107.124 177.7773
10638.803587 107.013 179.9791
10715.896743 106.929 -177.8129
10793.548548 106.874 -175.6115
10871.763050 106.848 -173.4315
10950.544327 106.849 -171.2873
11029.896485 106.877 -169.1920
11109.823662 106.932 -167.1570
11190.330024 107.014 -165.1921
11271.419768 107.121 -163.3060
11353.097122 107.255 -161.5055
11435.366344 107.414 -159.7962
11518.231722 107.601 -158.1835
11601.697577 107.818 -156.6760
11685.768261 108.067 -155.2920
11770.448155 108.351 -154.0654
11855.741674 108.672 -153.0480
11941.653265 109.029 -152.3061
12028.187408 109.417 -151.9108
12115.348612 109.826 -151.9275
12203.141422 110.248 -152.4079
12291.570415 110.666 -153.3850
12380.640201 111.068 -154.8709
12470.355424 111.438 -156.8545
12560.720760 111.759 -159.3009
12651.740920 112.018 -162.1508
12743.420650 112.203 -165.3212
12835.764729 112.304 -168.7084
12928.777972 112.317 -172.1939
13022.465227 112.240 -175.6536
13116.831378 112.080 -178.9677
13211.881345 111.845 177.9691
13307.620084 111.548 175.2399
13404.052584 111.205 172.9002
13501.183875 110.831 170.9774
13599.019019 110.442 169.4735
13697.563116 110.054 168.3700
13796.821305 109.679 167.6332
13896.798760 109.330 167.2171
13997.500692 109.018 167.0639
14098.932352 108.754 167.1021
14201.099028 108.546 167.2433
14304.006046 108.403 167.3790
14407.658770 108.330 167.3781
14512.062604 108.327 167.0896
14617.222992 108.385 166.3526
14723.145416 108.488 165.0139
14829.835397 108.606 162.9538
14937.298497 108.699 160.1209
15045.540320 108.716 156.5760
15154.566507 108.605 152.5490
15264.382743 108.318 148.5071
15374.994752 107.834 145.2156
15486.408302 107.187 143.6977
15598.629201 106.490 144.8629
15711.663298 105.928 148.5540
15825.516487 105.654 152.7969
15940.194703 105.658 155.1148
16055.703925 105.779 154.5732
16172.050174 105.838 151.7360
16289.239516 105.726 147.6244
16407.278061 105.410 143.1308
16526.171961 104.906 138.8721
16645.927415 104.256 135.2085
16766.550667 103.508 132.2992
16888.048005 102.711 130.1553
17010.425762 101.907 128.6759
17133.690320 101.133 127.6713
17257.848103 100.410 126.8913
17382.905584 99.746 126.0727
17508.869284 99.125 125.0023
17635.745768 98.519 123.5706
17763.541652 97.889 121.7927
17892.263597 97.197 119.7979
18021.918315 96.414 117.8009
18152.512564 95.521 116.0710
18284.053153 94.513 114.9089
18416.546939 93.398 114.6275
18550.000830 92.198 115.5280
18684.421783 90.949 117.8579
18819.816805 89.702 121.7420
18956.192956 88.520 127.0909
19093.557344 87.466 133.5356
19231.917131 86.593 140.4641
19371.279531 85.930 147.1785
19511.651807 85.471 153.0773
19653.041280 85.184 157.7443
19795.455318 85.025 160.9337
19938.901348 84.958 162.5144
