* Measurement data measured by REW V5.31.3
* Source: Input device not selected, no input selected, L, volume: 1,000
* Format: 256k Log Swept Sine, 1 sweep at -20,0 dBFS with no timing reference
* Dated: 26.05.2025 16:26:40
* REW Settings:
*  C-weighting compensation: Off
*  Target level: 75.0 dB
* Note: 
* Measurement: Realme Air6 Pro
* Smoothing: 1/12 octave
* Frequency Step: 96 ppo
* Start Frequency: 20.187378 Hz
*
* Freq(Hz) SPL(dB) Phase(degrees)
20.187378 107.400 54.0443
20.333664 107.410 54.0762
20.481010 107.423 54.1232
20.629424 107.439 54.1807
20.778913 107.455 54.2441
20.929486 107.471 54.3093
21.081150 107.485 54.3725
21.233912 107.498 54.4305
21.387782 107.509 54.4804
21.542767 107.518 54.5198
21.698874 107.526 54.5464
21.856113 107.533 54.5587
22.014492 107.541 54.5555
22.174018 107.549 54.5362
22.334700 107.558 54.5008
22.496546 107.570 54.4494
22.659566 107.585 54.3827
22.823766 107.605 54.3014
22.989157 107.628 54.2063
23.155745 107.657 54.0984
23.323542 107.689 53.9791
23.492554 107.725 53.8504
23.662790 107.764 53.7152
23.834261 107.804 53.5777
24.006973 107.844 53.4434
24.180938 107.881 53.3193
24.356163 107.914 53.2136
24.532658 107.942 53.1348
24.710431 107.964 53.0910
24.889493 107.980 53.0888
25.069853 107.991 53.1316
25.251519 107.998 53.2189
25.434502 108.002 53.3453
25.618811 108.006 53.5005
25.804456 108.011 53.6696
25.991445 108.019 53.8348
26.179790 108.030 53.9775
26.369500 108.045 54.0808
26.560584 108.063 54.1324
26.753053 108.082 54.1257
26.946917 108.102 54.0617
27.142185 108.122 53.9479
27.338869 108.139 53.7981
27.536977 108.154 53.6294
27.736522 108.166 53.4602
27.937512 108.176 53.3075
28.139959 108.184 53.1844
28.343872 108.193 53.0991
28.549264 108.202 53.0539
28.756143 108.211 53.0459
28.964522 108.222 53.0683
29.174411 108.234 53.1121
29.385821 108.245 53.1679
29.598763 108.256 53.2277
29.813248 108.266 53.2856
30.029287 108.274 53.3381
30.246891 108.280 53.3839
30.466073 108.286 53.4229
30.686842 108.291 53.4560
30.909212 108.296 53.4839
31.133193 108.301 53.5075
31.358797 108.308 53.5271
31.586035 108.315 53.5435
31.814921 108.323 53.5576
32.045465 108.331 53.5710
32.277680 108.338 53.5854
32.511577 108.343 53.6024
32.747169 108.346 53.6230
32.984469 108.348 53.6470
33.223488 108.348 53.6728
33.464239 108.347 53.6975
33.706735 108.346 53.7174
33.950987 108.344 53.7290
34.197010 108.343 53.7297
34.444816 108.341 53.7194
34.694417 108.339 53.7003
34.945827 108.336 53.6773
35.199059 108.332 53.6571
35.454126 108.326 53.6471
35.711041 108.319 53.6537
35.969818 108.311 53.6809
36.230470 108.301 53.7298
36.493011 108.291 53.7977
36.757455 108.280 53.8792
37.023814 108.269 53.9674
37.292104 108.258 54.0552
37.562338 108.247 54.1374
37.834530 108.236 54.2112
38.108695 108.224 54.2766
38.384846 108.212 54.3363
38.662999 108.201 54.3945
38.943167 108.190 54.4558
39.225365 108.179 54.5246
39.509608 108.169 54.6038
39.795911 108.161 54.6949
40.084289 108.152 54.7978
40.374756 108.144 54.9105
40.667328 108.136 55.0300
40.962020 108.127 55.1520
41.258848 108.118 55.2723
41.557827 108.107 55.3867
41.858972 108.095 55.4925
42.162299 108.081 55.5889
42.467824 108.066 55.6778
42.775564 108.049 55.7642
43.085533 108.029 55.8558
43.397749 108.009 55.9615
43.712227 107.987 56.0891
44.028983 107.966 56.2422
44.348036 107.947 56.4178
44.669400 107.930 56.6062
44.993093 107.915 56.7936
45.319131 107.903 56.9662
45.647532 107.892 57.1144
45.978313 107.883 57.2352
46.311491 107.877 57.3290
46.647083 107.875 57.3960
46.985107 107.880 57.4329
47.325581 107.890 57.4340
47.668521 107.903 57.3985
48.013947 107.913 57.3395
48.361876 107.914 57.2886
48.712326 107.902 57.2917
49.065315 107.876 57.3959
49.420863 107.841 57.6310
49.778987 107.801 57.9965
50.139706 107.765 58.4596
50.503039 107.733 58.9684
50.869005 107.707 59.4724
51.237623 107.683 59.9402
51.608912 107.659 60.3640
51.982891 107.632 60.7518
52.359580 107.605 61.1147
52.739000 107.578 61.4580
53.121168 107.553 61.7806
53.506106 107.529 62.0810
53.893833 107.507 62.3632
54.284370 107.486 62.6377
54.677737 107.466 62.9179
55.073955 107.446 63.2136
55.473043 107.427 63.5279
55.875024 107.407 63.8571
56.279917 107.388 64.1934
56.687745 107.368 64.5297
57.098527 107.349 64.8618
57.512287 107.332 65.1906
57.929045 107.316 65.5223
58.348822 107.302 65.8662
58.771642 107.290 66.2316
59.197525 107.276 66.6238
59.626495 107.260 67.0403
60.058573 107.241 67.4711
60.493782 107.219 67.9015
60.932145 107.196 68.3176
61.373685 107.175 68.7128
61.818424 107.158 69.0907
62.266386 107.146 69.4642
62.717593 107.138 69.8505
63.172071 107.131 70.2634
63.629842 107.122 70.7064
64.090930 107.108 71.1708
64.555359 107.088 71.6385
65.023154 107.065 72.0904
65.494339 107.040 72.5147
65.968938 107.016 72.9123
66.446976 106.996 73.2955
66.928478 106.979 73.6814
67.413469 106.966 74.0840
67.901975 106.954 74.5090
68.394021 106.942 74.9529
68.889632 106.929 75.4072
69.388835 106.916 75.8635
69.891655 106.903 76.3183
70.398118 106.890 76.7742
70.908252 106.879 77.2376
71.422083 106.869 77.7141
71.939636 106.860 78.2056
72.460941 106.850 78.7089
72.986023 106.841 79.2170
73.514909 106.832 79.7225
74.047629 106.823 80.2204
74.584208 106.814 80.7104
75.124676 106.805 81.1971
75.669061 106.794 81.6877
76.217390 106.783 82.1889
76.769692 106.773 82.7036
77.325997 106.764 83.2298
77.886333 106.756 83.7618
78.450730 106.748 84.2942
79.019216 106.742 84.8239
79.591822 106.735 85.3508
80.168577 106.729 85.8755
80.749512 106.724 86.3989
81.334656 106.720 86.9229
81.924040 106.718 87.4504
82.517696 106.717 87.9828
83.115653 106.716 88.5199
83.717943 106.715 89.0615
84.324598 106.712 89.6069
84.935649 106.707 90.1511
85.551128 106.699 90.6852
86.171066 106.689 91.2029
86.795497 106.677 91.7052
87.424453 106.663 92.1991
88.057967 106.650 92.6939
88.696071 106.638 93.2013
89.338800 106.628 93.7330
89.986185 106.619 94.2938
90.638262 106.612 94.8763
91.295065 106.606 95.4670
91.956626 106.599 96.0573
92.622982 106.593 96.6468
93.294166 106.586 97.2374
93.970214 106.581 97.8279
94.651161 106.577 98.4163
95.337042 106.574 99.0038
96.027894 106.571 99.5917
96.723752 106.569 100.1781
97.424652 106.567 100.7602
98.130631 106.565 101.3404
98.841726 106.562 101.9265
99.557974 106.557 102.5260
100.279412 106.552 103.1412
101.006078 106.545 103.7696
101.738010 106.538 104.4066
102.475245 106.531 105.0475
103.217823 106.524 105.6870
103.965782 106.518 106.3201
104.719161 106.512 106.9446
105.477999 106.505 107.5619
106.242336 106.497 108.1753
107.012212 106.488 108.7875
107.787666 106.478 109.4008
108.568740 106.467 110.0177
109.355474 106.456 110.6405
110.147909 106.444 111.2698
110.946086 106.433 111.9045
111.750047 106.421 112.5444
112.559834 106.410 113.1908
113.375489 106.399 113.8467
114.197055 106.388 114.5133
115.024574 106.377 115.1885
115.858089 106.367 115.8688
116.697645 106.356 116.5517
117.543284 106.344 117.2376
118.395051 106.332 117.9283
119.252990 106.319 118.6260
120.117147 106.305 119.3320
120.987565 106.288 120.0473
121.864291 106.270 120.7722
122.747370 106.252 121.5077
123.636848 106.237 122.2556
124.532771 106.224 123.0168
125.435187 106.213 123.7885
126.344142 106.204 124.5658
127.259684 106.195 125.3451
128.181860 106.185 126.1250
129.110718 106.174 126.9058
130.046308 106.163 127.6873
130.988677 106.150 128.4700
131.937875 106.135 129.2568
132.893951 106.120 130.0513
133.856956 106.104 130.8551
134.826938 106.089 131.6699
135.803950 106.074 132.4975
136.788041 106.059 133.3376
137.779264 106.046 134.1881
138.777669 106.033 135.0464
139.783309 106.020 135.9105
140.796237 106.008 136.7787
141.816504 105.997 137.6497
142.844165 105.985 138.5230
143.879273 105.974 139.3987
144.921881 105.961 140.2768
145.972045 105.947 141.1584
147.029819 105.931 142.0455
148.095257 105.914 142.9381
149.168417 105.898 143.8323
150.249353 105.884 144.7231
151.338121 105.871 145.6101
152.434780 105.858 146.4995
153.539385 105.846 147.4007
154.651995 105.833 148.3192
155.772667 105.820 149.2545
156.901460 105.807 150.2022
158.038432 105.794 151.1586
159.183644 105.781 152.1236
160.337154 105.769 153.0995
161.499023 105.757 154.0877
162.669312 105.746 155.0866
163.848081 105.735 156.0926
165.035392 105.725 157.1026
166.231306 105.716 158.1152
167.435887 105.706 159.1314
168.649196 105.697 160.1535
169.871298 105.687 161.1829
171.102255 105.676 162.2186
172.342133 105.666 163.2581
173.590995 105.656 164.2992
174.848907 105.647 165.3415
176.115934 105.638 166.3859
177.392143 105.629 167.4339
178.677599 105.620 168.4882
179.972371 105.612 169.5511
181.276525 105.604 170.6239
182.590129 105.596 171.7056
183.913252 105.590 172.7937
185.245964 105.583 173.8873
186.588332 105.576 174.9881
187.940428 105.569 176.0978
189.302322 105.563 177.2165
190.674085 105.557 178.3439
192.055788 105.550 179.4802
193.447503 105.544 -179.3754
194.849303 105.538 -178.2261
196.261262 105.532 -177.0767
197.683452 105.526 -175.9305
199.115948 105.520 -174.7891
200.558824 105.514 -173.6518
202.012156 105.509 -172.5154
203.476019 105.505 -171.3755
204.950490 105.500 -170.2282
206.435646 105.495 -169.0708
207.931564 105.489 -167.9024
209.438322 105.484 -166.7234
210.955998 105.478 -165.5358
212.484672 105.472 -164.3445
214.024424 105.465 -163.1548
215.575333 105.457 -161.9681
217.137481 105.447 -160.7818
218.710948 105.436 -159.5912
220.295818 105.422 -158.3909
221.892172 105.407 -157.1761
223.500094 105.390 -155.9420
225.119668 105.371 -154.6835
226.750978 105.350 -153.3951
228.394109 105.330 -152.0717
230.049147 105.310 -150.7103
231.716178 105.293 -149.3119
233.395289 105.280 -147.8814
235.086567 105.272 -146.4262
236.790102 105.269 -144.9555
238.505980 105.271 -143.4805
240.234293 105.277 -142.0135
241.975130 105.288 -140.5643
243.728581 105.303 -139.1366
245.494739 105.319 -137.7296
247.273695 105.336 -136.3395
249.065542 105.352 -134.9617
250.870374 105.365 -133.5919
252.688284 105.375 -132.2272
254.519367 105.383 -130.8650
256.363720 105.390 -129.5033
258.221437 105.395 -128.1401
260.092616 105.401 -126.7736
261.977354 105.405 -125.4020
263.875750 105.409 -124.0244
265.787903 105.413 -122.6410
267.713911 105.416 -121.2531
269.653877 105.418 -119.8621
271.607900 105.419 -118.4687
273.576083 105.419 -117.0723
275.558528 105.419 -115.6704
277.555338 105.419 -114.2592
279.566619 105.419 -112.8351
281.592474 105.419 -111.3958
283.633009 105.420 -109.9418
285.688331 105.420 -108.4764
287.758546 105.419 -107.0036
289.843763 105.417 -105.5249
291.944090 105.414 -104.0399
294.059638 105.409 -102.5490
296.190515 105.403 -101.0531
298.336833 105.396 -99.5518
300.498705 105.389 -98.0434
302.676243 105.382 -96.5261
304.869559 105.375 -94.9980
307.078770 105.368 -93.4578
309.303989 105.363 -91.9058
311.545334 105.359 -90.3437
313.802919 105.356 -88.7729
316.076865 105.353 -87.1937
318.367288 105.349 -85.6053
320.674309 105.344 -84.0064
322.998047 105.338 -82.3959
325.338624 105.332 -80.7739
327.696162 105.325 -79.1423
330.070783 105.317 -77.5031
332.462612 105.310 -75.8565
334.871773 105.303 -74.2008
337.298392 105.296 -72.5336
339.742595 105.290 -70.8537
342.204510 105.284 -69.1623
344.684265 105.277 -67.4618
347.181989 105.269 -65.7532
349.697813 105.260 -64.0347
352.231868 105.251 -62.3031
354.784285 105.240 -60.5565
357.355198 105.230 -58.7957
359.944741 105.219 -57.0232
362.553049 105.208 -55.2403
365.180258 105.197 -53.4465
367.826505 105.186 -51.6402
370.491927 105.174 -49.8193
373.176665 105.162 -47.9814
375.880856 105.151 -46.1243
378.604644 105.140 -44.2482
381.348169 105.130 -42.3555
384.111575 105.121 -40.4489
386.895006 105.112 -38.5293
389.698607 105.103 -36.5968
392.522524 105.095 -34.6527
395.366904 105.090 -32.6988
398.231895 105.086 -30.7363
401.117648 105.085 -28.7670
404.024312 105.085 -26.7921
406.952038 105.085 -24.8123
409.900981 105.085 -22.8273
412.871292 105.085 -20.8361
415.863128 105.084 -18.8380
418.876643 105.082 -16.8328
421.911996 105.080 -14.8204
424.969344 105.078 -12.8014
428.048847 105.076 -10.7746
431.150666 105.073 -8.7376
434.274961 105.070 -6.6880
437.421897 105.066 -4.6252
440.591636 105.063 -2.5498
443.784345 105.059 -0.4622
447.000189 105.056 1.6382
450.239337 105.054 3.7515
453.501956 105.054 5.8763
456.788219 105.054 8.0116
460.098294 105.055 10.1555
463.432356 105.056 12.3055
466.790578 105.056 14.4607
470.173135 105.056 16.6224
473.580203 105.056 18.7938
477.011961 105.055 20.9774
480.468586 105.053 23.1741
483.950259 105.051 25.3828
487.457163 105.049 27.6025
490.989478 105.046 29.8333
494.547390 105.044 32.0767
498.131084 105.042 34.3333
501.740748 105.040 36.6027
505.376568 105.039 38.8832
509.038735 105.037 41.1727
512.727439 105.035 43.4686
516.442874 105.033 45.7701
520.185232 105.029 48.0795
523.954708 105.026 50.4002
527.751500 105.022 52.7345
531.575805 105.017 55.0832
535.427822 105.013 57.4465
539.307753 105.008 59.8250
543.215800 105.003 62.2182
547.152165 104.998 64.6265
551.117055 104.993 67.0493
555.110677 104.989 69.4854
559.133237 104.986 71.9328
563.184947 104.982 74.3900
567.266018 104.977 76.8574
571.376661 104.971 79.3379
575.517092 104.965 81.8348
579.687526 104.958 84.3499
583.888181 104.951 86.8834
588.119275 104.945 89.4349
592.381030 104.939 92.0040
596.673667 104.934 94.5896
600.997410 104.929 97.1906
605.352485 104.924 99.8055
609.739119 104.920 102.4338
614.157540 104.916 105.0754
618.607979 104.911 107.7314
623.090667 104.906 110.4042
627.605839 104.901 113.0959
632.153730 104.896 115.8064
636.734576 104.890 118.5335
641.348617 104.885 121.2743
645.996094 104.880 124.0255
650.677248 104.875 126.7847
655.392323 104.869 129.5519
660.141566 104.865 132.3298
664.925224 104.860 135.1222
669.743546 104.855 137.9313
674.596784 104.849 140.7574
679.485191 104.844 143.5996
684.409020 104.838 146.4564
689.368530 104.832 149.3276
694.363979 104.825 152.2146
699.395626 104.818 155.1190
704.463736 104.812 158.0422
709.568570 104.806 160.9847
714.710396 104.799 163.9473
719.889483 104.793 166.9307
725.106099 104.787 169.9350
730.360516 104.780 172.9592
735.653010 104.773 176.0031
740.983855 104.766 179.0677
746.353329 104.759 -177.8463
751.761713 104.752 -174.7392
757.209288 104.746 -171.6122
762.696339 104.740 -168.4655
768.223151 104.735 -165.2979
773.790013 104.730 -162.1086
779.397214 104.725 -158.8978
785.045047 104.722 -155.6660
790.733808 104.719 -152.4145
796.463791 104.717 -149.1436
802.235296 104.716 -145.8529
808.048623 104.717 -142.5419
813.904077 104.717 -139.2099
819.801961 104.718 -135.8554
825.742584 104.720 -132.4778
831.726255 104.722 -129.0782
837.753287 104.726 -125.6590
843.823992 104.731 -122.2220
849.938689 104.736 -118.7676
856.097695 104.744 -115.2950
862.301332 104.752 -111.8034
868.549922 104.763 -108.2923
874.843793 104.774 -104.7620
881.183272 104.787 -101.2127
887.568689 104.802 -97.6451
894.000378 104.819 -94.0597
900.478673 104.838 -90.4573
907.003913 104.858 -86.8378
913.576437 104.879 -83.2013
920.196588 104.902 -79.5474
926.864712 104.927 -75.8764
933.581156 104.953 -72.1889
940.346270 104.982 -68.4857
947.160407 105.012 -64.7681
954.023921 105.044 -61.0374
960.937172 105.079 -57.2950
967.900519 105.115 -53.5424
974.914325 105.153 -49.7803
981.978956 105.194 -46.0091
989.094780 105.236 -42.2291
996.262169 105.280 -38.4402
1003.481495 105.326 -34.6428
1010.753136 105.373 -30.8373
1018.077470 105.422 -27.0244
1025.454879 105.472 -23.2043
1032.885748 105.524 -19.3770
1040.370463 105.577 -15.5427
1047.909417 105.632 -11.7012
1055.503000 105.686 -7.8535
1063.151610 105.741 -4.0009
1070.855645 105.797 -0.1445
1078.615506 105.853 3.7147
1086.431599 105.910 7.5768
1094.304330 105.967 11.4432
1102.234110 106.026 15.3158
1110.221353 106.084 19.1963
1118.266475 106.143 23.0858
1126.369895 106.202 26.9842
1134.532035 106.261 30.8905
1142.753322 106.319 34.8026
1151.034184 106.376 38.7180
1159.375052 106.433 42.6364
1167.776361 106.490 46.5599
1176.238550 106.546 50.4914
1184.762060 106.601 54.4330
1193.347334 106.657 58.3860
1201.994821 106.712 62.3513
1210.704971 106.767 66.3282
1219.478238 106.821 70.3160
1228.315080 106.875 74.3150
1237.215957 106.928 78.3266
1246.181334 106.980 82.3539
1255.211678 107.032 86.3997
1264.307459 107.083 90.4641
1273.469152 107.134 94.5460
1282.697235 107.184 98.6444
1291.992188 107.234 102.7598
1301.354495 107.283 106.8929
1310.784647 107.332 111.0438
1320.283132 107.381 115.2121
1329.850448 107.430 119.3978
1339.487093 107.479 123.6013
1349.193569 107.527 127.8232
1358.970381 107.576 132.0647
1368.818041 107.624 136.3264
1378.737061 107.673 140.6082
1388.727958 107.722 144.9092
1398.791253 107.771 149.2297
1408.927471 107.821 153.5696
1419.137140 107.871 157.9275
1429.420793 107.921 162.3029
1439.778965 107.971 166.6946
1450.212197 108.022 171.1029
1460.721033 108.073 175.5282
1471.306019 108.123 179.9707
1481.967709 108.174 -175.5693
1492.706658 108.224 -171.0906
1503.523426 108.275 -166.5919
1514.418576 108.326 -162.0720
1525.392678 108.379 -157.5297
1536.446302 108.432 -152.9648
1547.580025 108.486 -148.3774
1558.794428 108.540 -143.7684
1570.090095 108.596 -139.1387
1581.467615 108.653 -134.4895
1592.927581 108.712 -129.8224
1604.470591 108.772 -125.1395
1616.097246 108.833 -120.4431
1627.808153 108.897 -115.7341
1639.603922 108.962 -111.0125
1651.485168 109.028 -106.2773
1663.452510 109.096 -101.5283
1675.506573 109.166 -96.7666
1687.647984 109.236 -91.9939
1699.877377 109.308 -87.2115
1712.195390 109.381 -82.4209
1724.602663 109.455 -77.6232
1737.099845 109.531 -72.8188
1749.687587 109.608 -68.0084
1762.366544 109.686 -63.1919
1775.137379 109.765 -58.3698
1788.000756 109.844 -53.5422
1800.957346 109.925 -48.7096
1814.007826 110.006 -43.8723
1827.152874 110.088 -39.0309
1840.393177 110.171 -34.1864
1853.729425 110.254 -29.3400
1867.162312 110.338 -24.4921
1880.692540 110.422 -19.6429
1894.320813 110.506 -14.7927
1908.047843 110.589 -9.9412
1921.874344 110.673 -5.0883
1935.801038 110.756 -0.2349
1949.828650 110.838 4.6180
1963.957912 110.920 9.4698
1978.189561 111.001 14.3202
1992.524338 111.081 19.1689
2006.962991 111.160 24.0166
2021.506272 111.237 28.8636
2036.154940 111.313 33.7111
2050.909758 111.386 38.5602
2065.771495 111.458 43.4119
2080.740927 111.527 48.2671
2095.818833 111.594 53.1267
2111.006001 111.658 57.9916
2126.303220 111.721 62.8630
2141.711290 111.780 67.7429
2157.231013 111.837 72.6329
2172.863198 111.892 77.5347
2188.608660 111.944 82.4497
2204.468221 111.993 87.3790
2220.442706 112.041 92.3246
2236.532950 112.086 97.2880
2252.739789 112.129 102.2705
2269.064070 112.172 107.2732
2285.506644 112.213 112.2953
2302.068367 112.253 117.3348
2318.750104 112.293 122.3878
2335.552723 112.332 127.4495
2352.477101 112.370 132.5144
2369.524119 112.407 137.5787
2386.694668 112.442 142.6394
2403.989641 112.474 147.6960
2421.409941 112.503 152.7502
2438.956476 112.527 157.8054
2456.630160 112.547 162.8666
2474.431915 112.562 167.9388
2492.362668 112.571 173.0272
2510.423356 112.576 178.1362
2528.614918 112.575 -176.7302
2546.938304 112.570 -171.5687
2565.394469 112.560 -166.3756
2583.984375 112.545 -161.1477
2602.708991 112.525 -155.8817
2621.569293 112.501 -150.5745
2640.566265 112.474 -145.2222
2659.700897 112.442 -139.8212
2678.974186 112.408 -134.3685
2698.387137 112.371 -128.8616
2717.940763 112.331 -123.2987
2737.636082 112.291 -117.6783
2757.474121 112.250 -112.0002
2777.455915 112.209 -106.2653
2797.582506 112.168 -100.4749
2817.854942 112.129 -94.6326
2838.274281 112.092 -88.7423
2858.841586 112.057 -82.8087
2879.557931 112.025 -76.8365
2900.424394 111.995 -70.8298
2921.442065 111.968 -64.7930
2942.612039 111.944 -58.7295
2963.935418 111.922 -52.6423
2985.413316 111.903 -46.5341
3007.046852 111.886 -40.4065
3028.837153 111.872 -34.2610
3050.785356 111.859 -28.0985
3072.892604 111.849 -21.9203
3095.160050 111.840 -15.7271
3117.588856 111.833 -9.5197
3140.180190 111.828 -3.2990
3162.935230 111.824 2.9341
3185.855163 111.822 9.1785
3208.941182 111.822 15.4326
3232.194493 111.822 21.6947
3255.616307 111.824 27.9630
3279.207844 111.826 34.2362
3302.970336 111.829 40.5128
3326.905021 111.833 46.7913
3351.013146 111.836 53.0710
3375.295969 111.840 59.3523
3399.754755 111.842 65.6354
3424.390779 111.844 71.9213
3449.205326 111.845 78.2106
3474.199690 111.845 84.5039
3499.375173 111.844 90.8025
3524.733088 111.841 97.1071
3550.274757 111.837 103.4183
3576.001511 111.830 109.7367
3601.914692 111.822 116.0623
3628.015651 111.812 122.3953
3654.305748 111.800 128.7358
3680.786354 111.785 135.0846
3707.458849 111.768 141.4419
3734.324624 111.747 147.8088
3761.385080 111.724 154.1873
3788.641627 111.697 160.5809
3816.095686 111.667 166.9958
3843.748688 111.632 173.4415
3871.602076 111.595 179.9298
3899.657300 111.556 -173.5273
3927.915825 111.517 -166.9261
3956.379122 111.481 -160.2788
3985.048676 111.446 -153.6154
4013.925981 111.414 -146.9674
4043.012544 111.381 -140.3481
4072.309879 111.345 -133.7488
4101.819515 111.304 -127.1497
4131.542990 111.258 -120.5319
4161.481854 111.207 -113.8829
4191.637667 111.153 -107.1960
4222.012001 111.096 -100.4689
4252.606441 111.036 -93.7014
4283.422580 110.974 -86.8938
4314.462026 110.910 -80.0459
4345.726396 110.844 -73.1575
4377.217321 110.777 -66.2275
4408.936442 110.708 -59.2551
4440.885413 110.638 -52.2393
4473.065899 110.567 -45.1786
4505.479579 110.496 -38.0717
4538.128141 110.425 -30.9164
4571.013288 110.354 -23.7096
4604.136735 110.283 -16.4467
4637.500207 110.212 -9.1200
4671.105446 110.144 -1.7202
4704.954201 110.078 5.7635
4739.048239 110.017 13.3392
4773.389336 109.964 21.0045
4807.979283 109.921 28.7389
4842.819883 109.888 36.5093
4877.912952 109.865 44.2902
4913.260320 109.851 52.0784
4948.863830 109.845 59.8877
4984.725337 109.847 67.7321
5020.846712 109.861 75.6172
5057.229836 109.886 83.5381
5093.876609 109.925 91.4812
5130.788938 109.978 99.4292
5167.968750 110.046 107.3608
5205.417982 110.129 115.2559
5243.138586 110.226 123.0925
5281.132530 110.337 130.8501
5319.401793 110.460 138.5083
5357.948371 110.593 146.0486
5396.774274 110.733 153.4551
5435.881525 110.879 160.7153
5475.272163 111.026 167.8215
5514.948243 111.173 174.7708
5554.911831 111.316 -178.4355
5595.165012 111.452 -171.7910
5635.709884 111.578 -165.2847
5676.548561 111.693 -158.9026
5717.683172 111.792 -152.6257
5759.115861 111.877 -146.4341
5800.848789 111.945 -140.3049
5842.884130 111.996 -134.2168
5885.224077 112.030 -128.1479
5927.870837 112.049 -122.0796
5970.826633 112.051 -115.9954
6014.093704 112.040 -109.8813
6057.674306 112.016 -103.7278
6101.570711 111.979 -97.5281
6145.785208 111.933 -91.2788
6190.320101 111.876 -84.9802
6235.177712 111.811 -78.6338
6280.360380 111.737 -72.2422
6325.870460 111.655 -65.8054
6371.710325 111.564 -59.3210
6417.882365 111.465 -52.7812
6464.388986 111.358 -46.1719
6511.232613 111.243 -39.4744
6558.415689 111.122 -32.6667
6605.940673 110.997 -25.7280
6653.810042 110.872 -18.6399
6702.026292 110.751 -11.3911
6750.591937 110.637 -3.9773
6799.509509 110.535 3.5972
6848.781558 110.450 11.3191
6898.410653 110.386 19.1675
6948.399380 110.346 27.1128
6998.750346 110.335 35.1194
7049.466176 110.354 43.1472
7100.549514 110.406 51.1531
7152.003023 110.489 59.0935
7203.829385 110.606 66.9250
7256.031302 110.754 74.6062
7308.611496 110.932 82.0962
7361.572708 111.140 89.3525
7414.917698 111.374 96.3306
7468.649249 111.631 102.9800
7522.770160 111.907 109.2461
7577.283253 112.197 115.0708
7632.191371 112.492 120.3955
7687.497376 112.784 125.1658
7743.204151 113.060 129.3389
7799.314600 113.305 132.8921
7855.831649 113.503 135.8315
7912.758244 113.635 138.2009
7970.097352 113.685 140.0852
8027.851962 113.636 141.6099
8086.025087 113.478 142.9348
8144.619758 113.204 144.2417
8203.639030 112.815 145.7183
8263.085980 112.318 147.5417
8322.963708 111.723 149.8657
8383.275334 111.046 152.8096
8444.024002 110.305 156.4548
8505.212881 109.518 160.8403
8566.845160 108.703 165.9636
8628.924051 107.877 171.7827
8691.452792 107.053 178.2275
8754.434642 106.242 -174.7849
8817.872884 105.450 -167.3333
8881.770826 104.682 -159.4766
8946.131799 103.940 -151.2483
9010.959157 103.225 -142.6604
9076.256282 102.542 -133.7144
9142.026576 101.894 -124.4160
9208.273470 101.285 -114.7852
9275.000415 100.721 -104.8604
9342.210891 100.206 -94.6951
9409.908403 99.743 -84.3491
9478.096478 99.333 -73.8818
9546.778672 98.978 -63.3467
9615.958566 98.677 -52.7878
9685.639765 98.429 -42.2417
9755.825904 98.232 -31.7366
9826.520640 98.084 -21.2949
9897.727659 97.984 -10.9351
9969.450674 97.929 -0.6731
10041.693423 97.919 9.4778
10114.459673 97.950 19.5059
10187.753217 98.023 29.3997
10261.577877 98.137 39.1482
10335.937500 98.291 48.7388
10410.835964 98.484 58.1560
10486.277173 98.717 67.3818
10562.265060 98.989 76.3936
10638.803587 99.300 85.1638
10715.896743 99.648 93.6611
10793.548548 100.032 101.8501
10871.763050 100.449 109.6917
10950.544327 100.894 117.1458
11029.896485 101.362 124.1729
11109.823662 101.848 130.7373
11190.330024 102.343 136.8123
11271.419768 102.839 142.3833
11353.097122 103.327 147.4512
11435.366344 103.799 152.0349
11518.231722 104.246 156.1731
11601.697577 104.660 159.9229
11685.768261 105.036 163.3582
11770.448155 105.373 166.5649
11855.741674 105.670 169.6343
11941.653265 105.933 172.6528
12028.187408 106.170 175.6914
12115.348612 106.394 178.7917
12203.141422 106.616 -178.0444
12291.570415 106.848 -174.8618
12380.640201 107.099 -171.7461
12470.355424 107.371 -168.8091
12560.720760 107.661 -166.1641
12651.740920 107.960 -163.9043
12743.420650 108.254 -162.0901
12835.764729 108.530 -160.7432
12928.777972 108.771 -159.8447
13022.465227 108.964 -159.3389
13116.831378 109.099 -159.1377
13211.881345 109.169 -159.1323
13307.620084 109.173 -159.2053
13404.052584 109.114 -159.2407
13501.183875 108.999 -159.1362
13599.019019 108.841 -158.8096
13697.563116 108.653 -158.2039
13796.821305 108.452 -157.2915
13896.798760 108.256 -156.0747
13997.500692 108.085 -154.5867
14098.932352 107.958 -152.8936
14201.099028 107.893 -151.0967
14304.006046 107.907 -149.3335
14407.658770 108.011 -147.7734
14512.062604 108.210 -146.6096
14617.222992 108.500 -146.0469
14723.145416 108.867 -146.2844
14829.835397 109.286 -147.4958
14937.298497 109.720 -149.8086
15045.540320 110.125 -153.2854
15154.566507 110.452 -157.9070
15264.382743 110.651 -163.5601
15374.994752 110.679 -170.0322
15486.408302 110.503 -177.0259
15598.629201 110.105 175.8074
15711.663298 109.486 168.8164
15825.516487 108.661 162.3025
15940.194703 107.657 156.4915
16055.703925 106.504 151.5295
16172.050174 105.234 147.4934
16289.239516 103.879 144.4038
16407.278061 102.466 142.2441
16526.171961 101.022 140.9734
16645.927415 99.568 140.5396
16766.550667 98.123 140.8872
16888.048005 96.704 141.9629
17010.425762 95.326 143.7119
17133.690320 94.004 146.0776
17257.848103 92.749 148.9961
17382.905584 91.576 152.3972
17508.869284 90.496 156.2070
17635.745768 89.519 160.3516
17763.541652 88.657 164.7522
17892.263597 87.923 169.3186
18021.918315 87.328 173.9377
18152.512564 86.886 178.4673
18284.053153 86.602 -177.2610
18416.546939 86.479 -173.4292
18550.000830 86.510 -170.2151
18684.421783 86.682 -167.7842
18819.816805 86.972 -166.2810
18956.192956 87.352 -165.8120
19093.557344 87.785 -166.4236
19231.917131 88.230 -168.0742
19371.279531 88.648 -170.6060
19511.651807 89.006 -173.7158
19653.041280 89.279 -176.9365
19795.455318 89.458 -179.6602
19938.901348 89.544 178.7534
