* Measurement data measured by REW V5.40 beta 98
* Source: Микрофон (HiBy Digital D1), MICROPHONE (Общая громкость), R, volume: 0,250
* Format: 256k Log Swept Sine, 1 sweep at -15,0 dBFS with no timing reference
* Dated: 03.10.2025 15:53:31
* REW Settings:
*  C-weighting compensation: Off
*  Target level: 75.0 dB
* Note: 
* Measurement: GRAPHENE68
* Smoothing: 1/12 octave
* Frequency Step: 96 ppo
* Start Frequency: 0.36621094 Hz
*
* Freq(Hz) SPL(dB) Phase(degrees)
0.366211 30.766 -152.1326
0.368865 30.781 -152.1808
0.371538 30.804 -152.2524
0.374230 30.832 -152.3412
0.376942 30.864 -152.4419
0.379673 30.898 -152.5507
0.382424 30.934 -152.6650
0.385196 30.970 -152.7832
0.387987 31.007 -152.9043
0.390798 31.045 -153.0279
0.393630 31.082 -153.1537
0.396483 31.121 -153.2816
0.399356 31.159 -153.4114
0.402250 31.198 -153.5431
0.405165 31.237 -153.6767
0.408101 31.276 -153.8121
0.411058 31.316 -153.9494
0.414037 31.356 -154.0886
0.417037 31.396 -154.2295
0.420059 31.436 -154.3723
0.423103 31.477 -154.5169
0.426169 31.518 -154.6632
0.429257 31.560 -154.8113
0.432368 31.601 -154.9612
0.435501 31.643 -155.1129
0.438656 31.686 -155.2663
0.441835 31.728 -155.4214
0.445037 31.771 -155.5782
0.448262 31.814 -155.7367
0.451510 31.858 -155.8970
0.454782 31.902 -156.0589
0.458077 31.946 -156.2224
0.461397 31.990 -156.3877
0.464740 32.035 -156.5546
0.468108 32.080 -156.7231
0.471500 32.126 -156.8933
0.474917 32.171 -157.0650
0.478358 32.217 -157.2384
0.481825 32.264 -157.4135
0.485316 32.311 -157.5901
0.488833 32.358 -157.7683
0.492375 32.405 -157.9481
0.495943 32.453 -158.1295
0.499537 32.501 -158.3125
0.503157 32.550 -158.4971
0.506803 32.598 -158.6833
0.510475 32.648 -158.8711
0.514175 32.697 -159.0605
0.517900 32.747 -159.2515
0.521653 32.797 -159.4442
0.525434 32.848 -159.6384
0.529241 32.899 -159.8343
0.533076 32.950 -160.0318
0.536939 33.002 -160.2310
0.540830 33.054 -160.4319
0.544749 33.107 -160.6345
0.548696 33.160 -160.8388
0.552673 33.213 -161.0449
0.556677 33.267 -161.2527
0.560711 33.321 -161.4624
0.564774 33.375 -161.6738
0.568867 33.430 -161.8872
0.572989 33.485 -162.1024
0.577141 33.541 -162.3197
0.581324 33.597 -162.5389
0.585536 33.653 -162.7601
0.589779 33.710 -162.9834
0.594053 33.767 -163.2089
0.598358 33.825 -163.4366
0.602694 33.883 -163.6665
0.607061 33.942 -163.8988
0.611460 34.001 -164.1335
0.615891 34.060 -164.3706
0.620354 34.120 -164.6103
0.624849 34.180 -164.8526
0.629377 34.241 -165.0976
0.633938 34.302 -165.3454
0.638532 34.363 -165.5962
0.643159 34.425 -165.8499
0.647819 34.488 -166.1068
0.652514 34.551 -166.3669
0.657242 34.614 -166.6303
0.662005 34.678 -166.8972
0.666802 34.742 -167.1677
0.671634 34.807 -167.4420
0.676501 34.872 -167.7201
0.681403 34.938 -168.0023
0.686341 35.004 -168.2887
0.691314 35.071 -168.5795
0.696324 35.137 -168.8749
0.701370 35.205 -169.1750
0.706452 35.272 -169.4801
0.711571 35.340 -169.7904
0.716728 35.407 -170.1061
0.721921 35.473 -170.4275
0.727153 35.538 -170.7549
0.732422 35.600 -171.0886
0.737729 35.661 -171.4287
0.743075 35.719 -171.7755
0.748460 35.776 -172.1290
0.753883 35.831 -172.4891
0.759346 35.886 -172.8559
0.764849 35.940 -173.2291
0.770391 35.993 -173.6086
0.775974 36.046 -173.9943
0.781597 36.099 -174.3859
0.787261 36.151 -174.7832
0.792966 36.203 -175.1861
0.798712 36.255 -175.5944
0.804500 36.307 -176.0078
0.810329 36.358 -176.4261
0.816201 36.409 -176.8492
0.822116 36.460 -177.2769
0.828073 36.510 -177.7090
0.834074 36.560 -178.1452
0.840118 36.610 -178.5854
0.846206 36.660 -179.0295
0.852338 36.709 -179.4773
0.858514 36.758 -179.9285
0.864735 36.807 179.6170
0.871001 36.856 179.1593
0.877313 36.904 178.6985
0.883670 36.952 178.2350
0.890074 37.000 177.7686
0.896524 37.047 177.2997
0.903020 37.094 176.8283
0.909564 37.141 176.3545
0.916155 37.188 175.8784
0.922794 37.235 175.4001
0.929481 37.281 174.9197
0.936216 37.327 174.4373
0.943000 37.373 173.9529
0.949834 37.418 173.4666
0.956717 37.464 172.9783
0.963649 37.509 172.4881
0.970632 37.554 171.9961
0.977666 37.599 171.5021
0.984750 37.644 171.0063
0.991886 37.688 170.5085
0.999074 37.733 170.0088
1.006314 37.777 169.5070
1.013606 37.821 169.0029
1.020951 37.865 168.4967
1.028349 37.909 167.9881
1.035801 37.953 167.4769
1.043307 37.997 166.9630
1.050867 38.040 166.4460
1.058482 38.084 165.9258
1.066152 38.128 165.4019
1.073878 38.171 164.8735
1.081660 38.215 164.3399
1.089498 38.258 163.8000
1.097393 38.302 163.2522
1.105345 38.345 162.6950
1.113355 38.388 162.1268
1.121423 38.430 161.5463
1.129549 38.473 160.9528
1.137734 38.514 160.3459
1.145979 38.556 159.7256
1.154283 38.596 159.0921
1.162647 38.637 158.4456
1.171072 38.677 157.7865
1.179558 38.716 157.1153
1.188106 38.755 156.4324
1.196715 38.794 155.7385
1.205387 38.831 155.0341
1.214122 38.869 154.3196
1.222920 38.906 153.5957
1.231782 38.942 152.8631
1.240708 38.978 152.1223
1.249699 39.014 151.3739
1.258754 39.048 150.6186
1.267876 39.083 149.8571
1.277063 39.117 149.0899
1.286318 39.150 148.3179
1.295639 39.183 147.5416
1.305027 39.215 146.7617
1.314484 39.247 145.9789
1.324009 39.278 145.1940
1.333604 39.309 144.4075
1.343268 39.339 143.6202
1.353002 39.368 142.8328
1.362806 39.398 142.0457
1.372681 39.426 141.2599
1.382628 39.454 140.4758
1.392647 39.482 139.6939
1.402739 39.509 138.9148
1.412904 39.535 138.1388
1.423142 39.561 137.3658
1.433455 39.587 136.5957
1.443843 39.612 135.8274
1.454305 39.636 135.0594
1.464844 39.660 134.2892
1.475459 39.683 133.5140
1.486150 39.705 132.7309
1.496920 39.727 131.9374
1.507767 39.748 131.1319
1.518693 39.768 130.3137
1.529698 39.787 129.4823
1.540783 39.805 128.6379
1.551948 39.823 127.7807
1.563194 39.840 126.9113
1.574521 39.855 126.0302
1.585931 39.870 125.1381
1.597423 39.884 124.2357
1.608999 39.897 123.3237
1.620658 39.909 122.4030
1.632402 39.920 121.4742
1.644232 39.930 120.5384
1.656146 39.939 119.5963
1.668147 39.947 118.6489
1.680235 39.954 117.6969
1.692411 39.960 116.7414
1.704675 39.965 115.7832
1.717028 39.968 114.8232
1.729470 39.971 113.8623
1.742003 39.972 112.9014
1.754626 39.973 111.9410
1.767341 39.972 110.9817
1.780147 39.969 110.0235
1.793047 39.966 109.0661
1.806040 39.961 108.1082
1.819128 39.956 107.1473
1.832310 39.948 106.1801
1.845587 39.940 105.2022
1.858961 39.930 104.2094
1.872432 39.919 103.1982
1.886001 39.906 102.1663
1.899667 39.892 101.1126
1.913433 39.877 100.0367
1.927299 39.860 98.9387
1.941265 39.841 97.8193
1.955332 39.821 96.6795
1.969501 39.799 95.5206
1.983773 39.776 94.3440
1.998148 39.751 93.1513
2.012627 39.724 91.9443
2.027212 39.695 90.7252
2.041902 39.664 89.4958
2.056698 39.631 88.2586
2.071602 39.597 87.0159
2.086614 39.560 85.7702
2.101734 39.521 84.5238
2.116964 39.481 83.2791
2.132304 39.437 82.0378
2.147756 39.392 80.8012
2.163320 39.345 79.5692
2.178996 39.295 78.3401
2.194786 39.243 77.1100
2.210690 39.188 75.8734
2.226710 39.131 74.6236
2.242845 39.072 73.3549
2.259098 39.011 72.0628
2.275468 38.947 70.7442
2.291957 38.880 69.3974
2.308566 38.811 68.0220
2.325295 38.739 66.6181
2.342145 38.665 65.1867
2.359117 38.587 63.7292
2.376212 38.507 62.2477
2.393431 38.423 60.7446
2.410775 38.336 59.2229
2.428244 38.246 57.6861
2.445840 38.153 56.1379
2.463564 38.056 54.5824
2.481416 37.956 53.0234
2.499397 37.851 51.4644
2.517509 37.743 49.9078
2.535752 37.631 48.3539
2.554127 37.515 46.8002
2.572635 37.396 45.2411
2.591277 37.272 43.6682
2.610055 37.144 42.0728
2.628968 37.011 40.4469
2.648019 36.875 38.7841
2.667208 36.734 37.0798
2.686535 36.589 35.3309
2.706003 36.440 33.5358
2.725612 36.286 31.6942
2.745363 36.127 29.8070
2.765257 35.964 27.8766
2.785295 35.795 25.9064
2.805478 35.622 23.9011
2.825808 35.444 21.8666
2.846285 35.260 19.8092
2.866910 35.070 17.7351
2.887685 34.875 15.6490
2.908611 34.673 13.5523
2.929688 34.465 11.4417
2.950917 34.249 9.3082
2.972301 34.026 7.1390
2.993839 33.795 4.9196
3.015534 33.556 2.6362
3.037386 33.310 0.2766
3.059396 33.057 -2.1691
3.081565 32.798 -4.7085
3.103896 32.534 -7.3466
3.126388 32.265 -10.0853
3.149043 31.992 -12.9234
3.171862 31.717 -15.8561
3.194847 31.440 -18.8755
3.217998 31.162 -21.9714
3.241317 30.883 -25.1336
3.264805 30.604 -28.3549
3.288463 30.323 -31.6363
3.312293 30.041 -34.9900
3.336295 29.755 -38.4398
3.360471 29.465 -42.0167
3.384822 29.172 -45.7537
3.409350 28.875 -49.6815
3.434056 28.578 -53.8251
3.458940 28.282 -58.2003
3.484005 27.990 -62.8118
3.509252 27.705 -67.6492
3.534681 27.430 -72.6866
3.560295 27.170 -77.8839
3.586094 26.927 -83.1914
3.612081 26.706 -88.5603
3.638255 26.509 -93.9557
3.664620 26.337 -99.3677
3.691175 26.193 -104.8148
3.717923 26.077 -110.3323
3.744864 25.986 -115.9542
3.772001 25.920 -121.6985
3.799335 25.876 -127.5588
3.826866 25.851 -133.5027
3.854597 25.843 -139.4753
3.882529 25.849 -145.4083
3.910664 25.865 -151.2318
3.939002 25.891 -156.8882
3.967546 25.923 -162.3447
3.996296 25.961 -167.6013
4.025255 26.005 -172.6933
4.054423 26.054 -177.6815
4.083804 26.110 177.3671
4.113396 26.174 172.4008
4.143204 26.245 167.3945
4.173227 26.324 162.3499
4.203468 26.409 157.2899
4.233928 26.498 152.2499
4.264609 26.592 147.2668
4.295512 26.688 142.3697
4.326639 26.784 137.5702
4.357992 26.881 132.8568
4.389572 26.978 128.1932
4.421380 27.073 123.5269
4.453419 27.169 118.8051
4.485691 27.264 113.9937
4.518196 27.361 109.0858
4.550936 27.461 104.1003
4.583914 27.564 99.0737
4.617131 27.673 94.0497
4.650589 27.787 89.0682
4.684289 27.910 84.1550
4.718233 28.040 79.3152
4.752424 28.180 74.5324
4.786862 28.329 69.7756
4.821549 28.488 65.0150
4.856488 28.656 60.2377
4.891680 28.832 55.4537
4.927127 29.014 50.6915
4.962831 29.202 45.9892
4.998794 29.394 41.3832
5.035017 29.589 36.8994
5.071503 29.786 32.5471
5.108253 29.985 28.3173
5.145270 30.186 24.1874
5.182555 30.389 20.1312
5.220110 30.592 16.1327
5.257937 30.797 12.1913
5.296038 31.000 8.3199
5.334415 31.200 4.5383
5.373071 31.397 0.8654
5.412006 31.587 -2.6869
5.451224 31.770 -6.1183
5.490725 31.945 -9.4412
5.530514 32.111 -12.6759
5.570590 32.269 -15.8422
5.610957 32.418 -18.9507
5.651616 32.558 -22.0004
5.692570 32.689 -24.9816
5.733821 32.808 -27.8809
5.775370 32.916 -30.6866
5.817221 33.012 -33.3943
5.859375 33.096 -36.0083
5.901834 33.166 -38.5410
5.944602 33.223 -41.0055
5.987679 33.266 -43.4093
6.031068 33.296 -45.7510
6.074771 33.311 -48.0214
6.118792 33.312 -50.2075
6.163131 33.297 -52.2966
6.207792 33.267 -54.2808
6.252776 33.221 -56.1588
6.298086 33.159 -57.9346
6.343725 33.080 -59.6113
6.389694 32.985 -61.1867
6.435996 32.874 -62.6519
6.482634 32.748 -63.9919
6.529610 32.606 -65.1884
6.576926 32.449 -66.2231
6.624585 32.277 -67.0804
6.672590 32.089 -67.7484
6.720942 31.889 -68.2169
6.769645 31.681 -68.4752
6.818700 31.469 -68.5099
6.868111 31.259 -68.3051
6.917881 31.057 -67.8425
6.968010 30.866 -67.1042
7.018504 30.691 -66.0782
7.069362 30.535 -64.7646
7.120590 30.405 -63.1815
7.172189 30.307 -61.3653
7.224161 30.252 -59.3675
7.276511 30.247 -57.2485
7.329239 30.298 -55.0703
7.382350 30.407 -52.8939
7.435845 30.570 -50.7808
7.489729 30.780 -48.7944
7.544002 31.029 -46.9948
7.598669 31.306 -45.4309
7.653732 31.605 -44.1346
7.709194 31.918 -43.1185
7.765058 32.241 -42.3784
7.821327 32.570 -41.9009
7.878004 32.897 -41.6694
7.935091 33.218 -41.6671
7.992592 33.525 -41.8789
8.050510 33.814 -42.2902
8.108847 34.082 -42.8851
8.167607 34.328 -43.6443
8.226793 34.551 -44.5455
8.286408 34.748 -45.5654
8.346454 34.919 -46.6846
8.406936 35.063 -47.8892
8.467856 35.178 -49.1694
8.529218 35.263 -50.5151
8.591024 35.318 -51.9105
8.653278 35.342 -53.3347
8.715983 35.333 -54.7659
8.779143 35.291 -56.1862
8.842760 35.215 -57.5821
8.906839 35.103 -58.9401
8.971381 34.956 -60.2396
9.036392 34.770 -61.4507
9.101873 34.547 -62.5380
9.167829 34.283 -63.4637
9.234263 33.980 -64.1906
9.301178 33.639 -64.6760
9.368578 33.264 -64.8662
9.436467 32.858 -64.6926
9.504847 32.428 -64.0746
9.573723 31.982 -62.9251
9.643099 31.534 -61.1607
9.712976 31.106 -58.7152
9.783361 30.729 -55.5580
9.854255 30.438 -51.7195
9.925663 30.261 -47.3160
9.997588 30.217 -42.5638
10.070035 30.306 -37.7632
10.143007 30.518 -33.2380
10.216507 30.837 -29.2564
10.290540 31.239 -25.9806
10.365109 31.704 -23.4646
10.440219 32.205 -21.6877
10.515873 32.719 -20.5885
10.592076 33.227 -20.0890
10.668830 33.713 -20.1063
10.746141 34.169 -20.5582
10.824012 34.587 -21.3679
10.902447 34.963 -22.4684
10.981451 35.293 -23.8051
11.061027 35.575 -25.3337
11.141180 35.813 -27.0140
11.221913 36.008 -28.8060
11.303232 36.166 -30.6730
11.385140 36.289 -32.5847
11.467641 36.380 -34.5161
11.550741 36.441 -36.4412
11.634442 36.473 -38.3313
11.718750 36.478 -40.1582
11.803669 36.457 -41.8976
11.889203 36.410 -43.5283
11.975357 36.341 -45.0283
12.062136 36.252 -46.3773
12.149543 36.148 -47.5609
12.237583 36.035 -48.5736
12.326262 35.924 -49.4124
12.415583 35.824 -50.0751
12.505552 35.747 -50.5645
12.596172 35.699 -50.8962
12.687449 35.686 -51.1017
12.779387 35.711 -51.2238
12.871992 35.774 -51.3107
12.965268 35.875 -51.4133
13.059220 36.011 -51.5836
13.153852 36.178 -51.8701
13.249170 36.371 -52.3117
13.345179 36.584 -52.9348
13.441884 36.811 -53.7557
13.539289 37.044 -54.7816
13.637401 37.276 -56.0102
13.736223 37.498 -57.4295
13.835761 37.704 -59.0214
13.936021 37.886 -60.7647
14.037007 38.041 -62.6350
14.138725 38.165 -64.6035
14.241180 38.257 -66.6387
14.344377 38.317 -68.7083
14.448323 38.344 -70.7791
14.553021 38.334 -72.8132
14.658478 38.287 -74.7695
14.764700 38.200 -76.6057
14.871691 38.073 -78.2756
14.979457 37.906 -79.7274
15.088005 37.703 -80.9059
15.197339 37.469 -81.7553
15.307465 37.213 -82.2198
15.418389 36.945 -82.2476
15.530117 36.682 -81.7995
15.642655 36.440 -80.8615
15.756008 36.238 -79.4535
15.870182 36.093 -77.6388
15.985184 36.021 -75.5284
16.101019 36.030 -73.2719
16.217694 36.121 -71.0323
16.335214 36.285 -68.9587
16.453586 36.504 -67.1652
16.572815 36.759 -65.7175
16.692909 37.028 -64.6317
16.813872 37.296 -63.8854
16.935713 37.549 -63.4304
17.058436 37.778 -63.2032
17.182048 37.981 -63.1339
17.306556 38.157 -63.1545
17.431967 38.309 -63.2052
17.558286 38.440 -63.2363
17.685521 38.557 -63.2137
17.813677 38.667 -63.1221
17.942762 38.778 -62.9661
18.072783 38.899 -62.7689
18.203746 39.033 -62.5710
18.335658 39.183 -62.4233
18.468526 39.349 -62.3785
18.602356 39.524 -62.4839
18.737156 39.701 -62.7748
18.872934 39.871 -63.2687
19.009695 40.026 -63.9646
19.147447 40.157 -64.8451
19.286197 40.259 -65.8773
19.425953 40.325 -67.0171
19.566721 40.351 -68.2127
19.708510 40.337 -69.4078
19.851326 40.283 -70.5446
19.995177 40.193 -71.5683
20.140070 40.074 -72.4293
20.286013 39.935 -73.0873
20.433014 39.785 -73.5147
20.581080 39.634 -73.6993
20.730219 39.491 -73.6453
20.880439 39.366 -73.3727
21.031747 39.267 -72.9142
21.184152 39.200 -72.3105
21.337661 39.171 -71.6060
21.492282 39.182 -70.8452
21.648024 39.236 -70.0726
21.804895 39.335 -69.3349
21.962902 39.481 -68.6842
22.122054 39.673 -68.1794
22.282360 39.908 -67.8850
22.443827 40.177 -67.8654
22.606464 40.469 -68.1758
22.770280 40.769 -68.8544
22.935283 41.062 -69.9146
23.101481 41.332 -71.3426
23.268884 41.565 -73.0973
23.437500 41.748 -75.1119
23.607338 41.871 -77.2979
23.778406 41.924 -79.5472
23.950714 41.902 -81.7350
24.124271 41.805 -83.7223
24.299086 41.639 -85.3589
24.475167 41.418 -86.4940
24.652524 41.164 -86.9905
24.831166 40.910 -86.7554
25.011103 40.696 -85.7788
25.192344 40.563 -84.1716
25.374898 40.543 -82.1738
25.558775 40.643 -80.1075
25.743984 40.848 -78.2874
25.930536 41.123 -76.9323
26.118439 41.428 -76.1282
26.307704 41.726 -75.8437
26.498341 41.993 -75.9702
26.690359 42.214 -76.3650
26.883768 42.387 -76.8822
27.078579 42.515 -77.3948
27.274801 42.609 -77.8075
27.472446 42.685 -78.0662
27.671522 42.756 -78.1599
27.872042 42.835 -78.1185
28.074014 42.929 -78.0004
28.277450 43.040 -77.8768
28.482360 43.165 -77.8134
28.688755 43.295 -77.8567
28.896645 43.423 -78.0276
29.106042 43.540 -78.3222
29.316957 43.641 -78.7168
29.529400 43.721 -79.1761
29.743382 43.781 -79.6599
29.958915 43.821 -80.1299
30.176009 43.846 -80.5533
30.394677 43.860 -80.9069
30.614929 43.868 -81.1787
30.836778 43.877 -81.3684
31.060234 43.889 -81.4870
31.285309 43.908 -81.5531
31.512015 43.935 -81.5886
31.740364 43.970 -81.6124
31.970368 44.011 -81.6364
32.202039 44.057 -81.6628
32.435388 44.107 -81.6872
32.670428 44.163 -81.7037
32.907171 44.227 -81.7128
33.145630 44.301 -81.7270
33.385817 44.386 -81.7716
33.627745 44.479 -81.8781
33.871425 44.576 -82.0725
34.116871 44.667 -82.3610
34.364096 44.745 -82.7203
34.613113 44.800 -83.0974
34.863934 44.833 -83.4175
35.116572 44.847 -83.6039
35.371041 44.854 -83.6007
35.627354 44.871 -83.3970
35.885525 44.913 -83.0399
36.145566 44.988 -82.6274
36.407492 45.097 -82.2795
36.671316 45.229 -82.0974
36.937051 45.368 -82.1311
37.204712 45.496 -82.3683
37.474313 45.600 -82.7452
37.745867 45.678 -83.1718
38.019389 45.731 -83.5604
38.294893 45.771 -83.8504
38.572394 45.808 -84.0233
38.851905 45.854 -84.1019
39.133442 45.915 -84.1367
39.417019 45.989 -84.1845
39.702651 46.074 -84.2886
39.990353 46.166 -84.4692
40.280140 46.259 -84.7252
40.572026 46.353 -85.0433
40.866028 46.444 -85.4069
41.162160 46.534 -85.8007
41.460438 46.621 -86.2101
41.760877 46.705 -86.6179
42.063494 46.784 -87.0024
42.368303 46.859 -87.3392
42.675322 46.934 -87.6069
42.984565 47.011 -87.7938
43.296048 47.092 -87.8997
43.609789 47.179 -87.9337
43.925804 47.270 -87.9069
44.244108 47.364 -87.8267
44.564719 47.460 -87.6949
44.887654 47.555 -87.5125
45.212928 47.651 -87.2844
45.540560 47.744 -87.0181
45.870565 47.834 -86.7150
46.202962 47.917 -86.3575
46.537768 47.993 -85.9078
46.875000 48.071 -85.3239
47.214676 48.164 -84.5995
47.556813 48.290 -83.8041
47.901429 48.460 -83.0919
48.248542 48.666 -82.6564
48.598171 48.884 -82.6473
48.950334 49.080 -83.1025
49.305048 49.225 -83.9364
49.662333 49.304 -84.9812
50.022206 49.319 -86.0544
50.384688 49.286 -87.0219
50.749796 49.229 -87.8329
51.117550 49.167 -88.5109
51.487969 49.109 -89.1045
51.861072 49.056 -89.6342
52.236879 49.008 -90.0723
52.615409 48.971 -90.3723
52.996681 48.961 -90.5231
53.380717 48.989 -90.5825
53.767536 49.060 -90.6600
54.157158 49.163 -90.8552
54.549603 49.277 -91.2019
54.944892 49.386 -91.6569
55.343045 49.481 -92.1340
55.744084 49.564 -92.5533
56.148028 49.643 -92.8752
56.554900 49.723 -93.1036
56.964720 49.807 -93.2656
57.377510 49.890 -93.3857
57.793291 49.970 -93.4733
58.212085 50.046 -93.5258
58.633914 50.121 -93.5429
59.058799 50.197 -93.5366
59.486764 50.279 -93.5331
59.917829 50.367 -93.5651
60.352019 50.459 -93.6589
60.789354 50.550 -93.8255
61.229859 50.637 -94.0587
61.673556 50.718 -94.3413
62.120468 50.795 -94.6546
62.570618 50.870 -94.9832
63.024031 50.945 -95.3151
63.480729 51.020 -95.6381
63.940736 51.094 -95.9382
64.404077 51.168 -96.2037
64.870776 51.241 -96.4291
65.340856 51.314 -96.6164
65.814343 51.387 -96.7711
66.291261 51.461 -96.8998
66.771635 51.539 -97.0115
67.255489 51.621 -97.1210
67.742850 51.708 -97.2469
68.233743 51.797 -97.4047
68.728193 51.886 -97.6017
69.226226 51.973 -97.8383
69.727867 52.056 -98.1134
70.233144 52.136 -98.4249
70.742083 52.213 -98.7662
71.254709 52.286 -99.1250
71.771050 52.358 -99.4861
72.291132 52.430 -99.8355
72.814984 52.504 -100.1602
73.342631 52.582 -100.4481
73.874102 52.663 -100.6917
74.409424 52.748 -100.8925
74.948626 52.836 -101.0623
75.491734 52.922 -101.2165
76.038779 53.003 -101.3649
76.589787 53.077 -101.5074
77.144788 53.141 -101.6381
77.703811 53.199 -101.7536
78.266885 53.253 -101.8577
78.834039 53.307 -101.9603
79.405303 53.368 -102.0787
79.980706 53.438 -102.2443
80.560280 53.521 -102.5002
81.144053 53.612 -102.8785
81.732056 53.704 -103.3712
82.324320 53.794 -103.9304
82.920876 53.881 -104.4990
83.521755 53.969 -105.0394
84.126988 54.059 -105.5349
84.736607 54.151 -105.9766
85.350643 54.245 -106.3609
85.969129 54.339 -106.6945
86.592097 54.433 -106.9946
87.219579 54.524 -107.2809
87.851608 54.610 -107.5680
88.488217 54.689 -107.8650
89.129439 54.761 -108.1775
89.775308 54.828 -108.5097
90.425856 54.890 -108.8650
91.081119 54.951 -109.2457
91.741131 55.012 -109.6512
92.405925 55.075 -110.0759
93.075536 55.142 -110.5093
93.750000 55.214 -110.9415
94.429351 55.292 -111.3688
95.113625 55.375 -111.7928
95.802858 55.462 -112.2153
96.497085 55.551 -112.6389
97.196342 55.640 -113.0681
97.900667 55.728 -113.5077
98.610096 55.813 -113.9575
99.324665 55.895 -114.4130
100.044413 55.977 -114.8689
100.769376 56.057 -115.3206
101.499592 56.138 -115.7642
102.235100 56.220 -116.1954
102.975938 56.303 -116.6121
103.722144 56.389 -117.0178
104.473757 56.478 -117.4263
105.230817 56.567 -117.8586
105.993363 56.653 -118.3350
106.761435 56.733 -118.8645
107.535072 56.802 -119.4325
108.314315 56.858 -120.0020
109.099206 56.907 -120.5402
109.889783 56.955 -121.0461
110.686090 57.005 -121.5457
111.488167 57.057 -122.0631
112.296056 57.111 -122.6069
113.109800 57.166 -123.1746
113.929440 57.224 -123.7625
114.755020 57.284 -124.3667
115.586582 57.346 -124.9795
116.424170 57.410 -125.5891
117.267827 57.473 -126.1882
118.117598 57.534 -126.7777
118.973527 57.592 -127.3633
119.835658 57.648 -127.9551
120.704037 57.701 -128.5625
121.578708 57.752 -129.1880
122.459718 57.801 -129.8276
123.347111 57.848 -130.4758
124.240935 57.896 -131.1292
125.141236 57.943 -131.7853
126.048061 57.991 -132.4446
126.961458 58.040 -133.1067
127.881473 58.087 -133.7705
128.808154 58.133 -134.4341
129.741551 58.176 -135.0966
130.681712 58.217 -135.7585
131.628686 58.256 -136.4215
132.582521 58.294 -137.0867
133.543269 58.331 -137.7556
134.510979 58.368 -138.4293
135.485701 58.405 -139.1079
136.467486 58.441 -139.7910
137.456386 58.474 -140.4785
138.452451 58.505 -141.1714
139.455735 58.532 -141.8680
140.466288 58.554 -142.5669
141.484165 58.573 -143.2673
142.509418 58.589 -143.9695
143.542100 58.603 -144.6730
144.582265 58.616 -145.3757
145.629968 58.627 -146.0745
146.685262 58.639 -146.7673
147.748204 58.650 -147.4557
148.818849 58.662 -148.1426
149.897251 58.673 -148.8291
150.983469 58.684 -149.5134
152.077557 58.695 -150.1943
153.179574 58.705 -150.8722
154.289576 58.716 -151.5481
155.407622 58.726 -152.2245
156.533770 58.735 -152.9028
157.668078 58.742 -153.5826
158.810606 58.744 -154.2626
159.961413 58.743 -154.9431
161.120559 58.738 -155.6266
162.288105 58.730 -156.3143
163.464112 58.719 -157.0046
164.648640 58.706 -157.6931
165.841752 58.692 -158.3730
167.043510 58.676 -159.0375
168.253976 58.658 -159.6829
169.473213 58.637 -160.3101
170.701286 58.612 -160.9225
171.938258 58.580 -161.5231
173.184194 58.543 -162.1124
174.439158 58.500 -162.6912
175.703216 58.454 -163.2618
176.976434 58.404 -163.8274
178.258878 58.354 -164.3911
179.550615 58.304 -164.9563
180.851713 58.256 -165.5229
182.162239 58.211 -166.0880
183.482262 58.170 -166.6453
184.811850 58.134 -167.1887
186.151073 58.103 -167.7148
187.500000 58.075 -168.2224
188.858702 58.049 -168.7129
190.227250 58.023 -169.1904
191.605715 57.996 -169.6613
192.994169 57.967 -170.1302
194.392685 57.937 -170.5992
195.801334 57.905 -171.0668
197.220191 57.871 -171.5293
198.649330 57.835 -171.9822
200.088825 57.796 -172.4226
201.538751 57.755 -172.8535
202.999184 57.712 -173.2810
204.470200 57.668 -173.7078
205.951875 57.621 -174.1296
207.444287 57.571 -174.5400
208.947514 57.520 -174.9341
210.461634 57.467 -175.3110
211.986726 57.412 -175.6718
213.522869 57.357 -176.0178
215.070144 57.303 -176.3506
216.628631 57.249 -176.6707
218.198411 57.196 -176.9802
219.779567 57.142 -177.2847
221.372180 57.089 -177.5923
222.976334 57.036 -177.9082
224.592112 56.983 -178.2306
226.219600 56.929 -178.5519
227.858880 56.874 -178.8634
229.510039 56.819 -179.1594
231.173164 56.762 -179.4390
232.848340 56.705 -179.7048
234.535655 56.649 -179.9609
236.235197 56.593 179.7894
237.947054 56.538 179.5452
239.671317 56.484 179.3070
241.408074 56.431 179.0770
243.157416 56.378 178.8567
244.919435 56.324 178.6467
246.694223 56.270 178.4464
248.481871 56.215 178.2554
250.282473 56.159 178.0750
252.096123 56.101 177.9060
253.922915 56.043 177.7463
255.762945 55.983 177.5916
257.616309 55.922 177.4395
259.483103 55.862 177.2926
261.363424 55.802 177.1558
263.257372 55.743 177.0332
265.165043 55.687 176.9272
267.086538 55.632 176.8372
269.021957 55.578 176.7600
270.971401 55.524 176.6926
272.934972 55.470 176.6340
274.912771 55.415 176.5841
276.904902 55.361 176.5405
278.911469 55.307 176.4982
280.932577 55.256 176.4512
282.968330 55.206 176.3958
285.018835 55.158 176.3314
287.084199 55.111 176.2621
289.164530 55.065 176.1936
291.259935 55.019 176.1296
293.370525 54.971 176.0703
295.496408 54.922 176.0150
297.637697 54.869 175.9668
299.794503 54.815 175.9341
301.966937 54.758 175.9233
304.155114 54.700 175.9348
306.359147 54.643 175.9637
308.579152 54.585 176.0056
310.815244 54.529 176.0579
313.067539 54.474 176.1182
315.336156 54.421 176.1814
317.621211 54.369 176.2394
319.922826 54.319 176.2847
322.241118 54.271 176.3135
324.576210 54.226 176.3279
326.928223 54.185 176.3354
329.297280 54.148 176.3477
331.683504 54.112 176.3729
334.087019 54.077 176.4125
336.507952 54.040 176.4602
338.946427 54.002 176.5076
341.402572 53.961 176.5457
343.876516 53.917 176.5685
346.368387 53.870 176.5756
348.878315 53.818 176.5723
351.406431 53.762 176.5671
353.952867 53.703 176.5695
356.517756 53.642 176.5863
359.101230 53.581 176.6226
361.703426 53.520 176.6805
364.324478 53.459 176.7627
366.964523 53.399 176.8740
369.623699 53.338 177.0186
372.302145 53.278 177.1971
375.000000 53.218 177.4067
377.717405 53.161 177.6411
380.454501 53.107 177.8911
383.211431 53.057 178.1478
385.988339 53.011 178.4070
388.785369 52.969 178.6663
391.602668 52.930 178.9219
394.440383 52.893 179.1677
397.298660 52.858 179.4009
400.177650 52.824 179.6228
403.077502 52.790 179.8397
405.998368 52.755 -179.9418
408.940400 52.719 -179.7175
411.903750 52.682 -179.4871
414.888575 52.646 -179.2550
417.895028 52.609 -179.0286
420.923268 52.574 -178.8126
423.973452 52.539 -178.6068
427.045738 52.505 -178.4062
430.140287 52.471 -178.2024
433.257261 52.437 -177.9866
436.396822 52.403 -177.7542
439.559133 52.371 -177.5074
442.744360 52.339 -177.2505
445.952668 52.309 -176.9852
449.184225 52.282 -176.7120
452.439199 52.259 -176.4338
455.717760 52.238 -176.1575
459.020079 52.220 -175.8923
462.346327 52.205 -175.6487
465.696680 52.192 -175.4343
469.071310 52.179 -175.2533
472.470394 52.164 -175.1055
475.894109 52.144 -174.9907
479.342634 52.116 -174.9075
482.816148 52.080 -174.8499
486.314833 52.034 -174.8044
489.838871 51.980 -174.7509
493.388445 51.918 -174.6635
496.963741 51.849 -174.5171
500.564945 51.777 -174.2916
504.192245 51.705 -173.9794
507.845830 51.638 -173.5868
511.525890 51.578 -173.1302
515.232618 51.529 -172.6324
518.966206 51.489 -172.1193
522.726849 51.458 -171.6125
526.514743 51.431 -171.1260
530.330086 51.408 -170.6654
534.173076 51.387 -170.2306
538.043915 51.368 -169.8164
541.942803 51.350 -169.4177
545.869944 51.334 -169.0316
549.825542 51.320 -168.6580
553.809805 51.307 -168.2974
557.822939 51.296 -167.9508
561.865154 51.285 -167.6176
565.936660 51.273 -167.2942
570.037671 51.259 -166.9731
574.168399 51.243 -166.6449
578.329060 51.226 -166.3044
582.519870 51.208 -165.9531
586.741049 51.190 -165.5952
590.992817 51.171 -165.2349
595.275394 51.152 -164.8773
599.589005 51.134 -164.5273
603.933874 51.117 -164.1844
608.310228 51.101 -163.8428
612.718295 51.086 -163.4945
617.158304 51.069 -163.1328
621.630488 51.052 -162.7539
626.135079 51.033 -162.3590
630.672311 51.013 -161.9542
635.242423 50.994 -161.5493
639.845651 50.976 -161.1509
644.482237 50.960 -160.7595
649.152421 50.945 -160.3735
653.856447 50.931 -159.9918
658.594560 50.918 -159.6152
663.367008 50.906 -159.2443
668.174039 50.895 -158.8759
673.015903 50.884 -158.5028
677.892854 50.873 -158.1189
682.805145 50.861 -157.7209
687.753032 50.847 -157.3092
692.736774 50.833 -156.8887
697.756631 50.820 -156.4691
702.812863 50.808 -156.0575
707.905735 50.796 -155.6567
713.035511 50.784 -155.2668
718.202461 50.772 -154.8843
723.406852 50.760 -154.5054
728.648956 50.749 -154.1270
733.929047 50.739 -153.7448
739.247399 50.729 -153.3535
744.604290 50.718 -152.9491
750.000000 50.706 -152.5311
755.434809 50.693 -152.1033
760.909001 50.680 -151.6699
766.422861 50.667 -151.2327
771.976677 50.653 -150.7917
777.570739 50.640 -150.3489
783.205337 50.627 -149.9073
788.880766 50.616 -149.4695
794.597321 50.604 -149.0332
800.355301 50.593 -148.5933
806.155005 50.582 -148.1460
811.996736 50.570 -147.6921
817.880799 50.557 -147.2358
823.807501 50.544 -146.7803
829.777150 50.531 -146.3273
835.790057 50.520 -145.8772
841.846536 50.508 -145.4292
847.946903 50.498 -144.9807
854.091476 50.487 -144.5297
860.280575 50.475 -144.0737
866.514523 50.462 -143.6099
872.793644 50.447 -143.1389
879.118267 50.431 -142.6643
885.488720 50.414 -142.1870
891.905336 50.397 -141.7017
898.368450 50.380 -141.1997
904.878398 50.364 -140.6750
911.435520 50.348 -140.1309
918.040157 50.333 -139.5787
924.692655 50.316 -139.0331
931.393359 50.299 -138.5018
938.142619 50.282 -137.9839
944.940787 50.264 -137.4690
951.788218 50.244 -136.9426
958.685268 50.223 -136.3960
965.632296 50.201 -135.8297
972.629666 50.180 -135.2496
979.677741 50.159 -134.6633
986.776890 50.138 -134.0782
993.927482 50.116 -133.4967
1001.129891 50.094 -132.9117
1008.384491 50.071 -132.3120
1015.691660 50.048 -131.6893
1023.051781 50.024 -131.0430
1030.465236 49.998 -130.3779
1037.932411 49.972 -129.7006
1045.453698 49.944 -129.0179
1053.029486 49.916 -128.3379
1060.660172 49.889 -127.6654
1068.346153 49.862 -126.9988
1076.087829 49.837 -126.3315
1083.885605 49.812 -125.6582
1091.739887 49.789 -124.9731
1099.651084 49.768 -124.2700
1107.619609 49.751 -123.5419
1115.645878 49.736 -122.7866
1123.730308 49.724 -122.0103
1131.873321 49.713 -121.2238
1140.075341 49.705 -120.4377
1148.336797 49.698 -119.6575
1156.658119 49.692 -118.8822
1165.039741 49.688 -118.1058
1173.482099 49.685 -117.3203
1181.985634 49.685 -116.5207
1190.550789 49.688 -115.7087
1199.178011 49.693 -114.8910
1207.867749 49.699 -114.0737
1216.620457 49.705 -113.2586
1225.436590 49.709 -112.4420
1234.316609 49.710 -111.6185
1243.260976 49.709 -110.7834
1252.270157 49.704 -109.9316
1261.344623 49.697 -109.0589
1270.484846 49.687 -108.1638
1279.691303 49.674 -107.2493
1288.964474 49.660 -106.3242
1298.304842 49.646 -105.3983
1307.712894 49.631 -104.4745
1317.189120 49.618 -103.5463
1326.734016 49.607 -102.6041
1336.348077 49.600 -101.6414
1346.031806 49.600 -100.6575
1355.785708 49.604 -99.6581
1365.610290 49.613 -98.6500
1375.506065 49.624 -97.6334
1385.473549 49.636 -96.6038
1395.513261 49.649 -95.5594
1405.625726 49.663 -94.5018
1415.811469 49.679 -93.4323
1426.071023 49.695 -92.3519
1436.404921 49.714 -91.2636
1446.813703 49.734 -90.1691
1457.297912 49.756 -89.0662
1467.858093 49.780 -87.9505
1478.494798 49.804 -86.8147
1489.208581 49.829 -85.6487
1500.000000 49.857 -84.4466
1510.869618 49.887 -83.2130
1521.818002 49.920 -81.9597
1532.845723 49.956 -80.6968
1543.953355 49.992 -79.4271
1555.141477 50.029 -78.1446
1566.410674 50.066 -76.8408
1577.761531 50.104 -75.5110
1589.194642 50.144 -74.1533
1600.710601 50.184 -72.7629
1612.310010 50.226 -71.3322
1623.993473 50.271 -69.8560
1635.761599 50.320 -68.3359
1647.615002 50.376 -66.7794
1659.554299 50.440 -65.1982
1671.580114 50.511 -63.6016
1683.693072 50.591 -61.9917
1695.893807 50.677 -60.3675
1708.182952 50.771 -58.7326
1720.561150 50.871 -57.0964
1733.029045 50.975 -55.4673
1745.587288 51.082 -53.8439
1758.236533 51.191 -52.2132
1770.977440 51.304 -50.5573
1783.810673 51.421 -48.8619
1796.736900 51.545 -47.1213
1809.756796 51.676 -45.3414
1822.871040 51.816 -43.5305
1836.080315 51.963 -41.6895
1849.385310 52.120 -39.8125
1862.786718 52.287 -37.8989
1876.285239 52.467 -35.9633
1889.881575 52.661 -34.0251
1903.576436 52.868 -32.0927
1917.370535 53.089 -30.1625
1931.264593 53.326 -28.2354
1945.259332 53.578 -26.3234
1959.355483 53.846 -24.4445
1973.553781 54.129 -22.6127
1987.854965 54.425 -20.8339
2002.259781 54.734 -19.1125
2016.768981 55.056 -17.4583
2031.383320 55.388 -15.8829
2046.103561 55.730 -14.3918
2060.930471 56.080 -12.9799
2075.864823 56.438 -11.6380
2090.907395 56.804 -10.3622
2106.058972 57.178 -9.1546
2121.320344 57.561 -8.0172
2136.692305 57.953 -6.9529
2152.175658 58.354 -5.9692
2167.771210 58.763 -5.0775
2183.479774 59.179 -4.2903
2199.302169 59.602 -3.6151
2215.239219 60.028 -3.0534
2231.291755 60.458 -2.6071
2247.460615 60.890 -2.2783
2263.746641 61.321 -2.0662
2280.150683 61.750 -1.9631
2296.673595 62.178 -1.9612
2313.316238 62.604 -2.0574
2330.079481 63.029 -2.2525
2346.964198 63.452 -2.5467
2363.971268 63.873 -2.9390
2381.101578 64.292 -3.4324
2398.356022 64.709 -4.0324
2415.735498 65.123 -4.7432
2433.240913 65.533 -5.5676
2450.873180 65.939 -6.5109
2468.633217 66.340 -7.5801
2486.521951 66.733 -8.7795
2504.540314 67.117 -10.1106
2522.689246 67.492 -11.5754
2540.969692 67.854 -13.1769
2559.382606 68.203 -14.9180
2577.928947 68.536 -16.8019
2596.609683 68.849 -18.8326
2615.425787 69.139 -21.0128
2634.378241 69.398 -23.3378
2653.468031 69.622 -25.7919
2672.696154 69.803 -28.3453
2692.063613 69.934 -30.9470
2711.571415 70.011 -33.5195
2731.220579 70.035 -35.9655
2751.012130 70.015 -38.1829
2770.947098 69.965 -40.0887
2791.026522 69.908 -41.6510
2811.251451 69.867 -42.9117
2831.622938 69.857 -43.9775
2852.142045 69.883 -44.9850
2872.809842 69.940 -46.0635
2893.627406 70.013 -47.3013
2914.595823 70.085 -48.7266
2935.716186 70.141 -50.3134
2956.989596 70.170 -52.0062
2978.417161 70.170 -53.7439
3000.000000 70.140 -55.4714
3021.739237 70.083 -57.1458
3043.636005 70.002 -58.7379
3065.691446 69.900 -60.2307
3087.906710 69.783 -61.6151
3110.282955 69.653 -62.8873
3132.821347 69.514 -64.0474
3155.523062 69.367 -65.0980
3178.389283 69.214 -66.0433
3201.421202 69.057 -66.8888
3224.620020 68.896 -67.6411
3247.986946 68.733 -68.3054
3271.523198 68.567 -68.8860
3295.230004 68.400 -69.3853
3319.108599 68.231 -69.8026
3343.160228 68.061 -70.1365
3367.386145 67.891 -70.3876
3391.787613 67.722 -70.5588
3416.365904 67.555 -70.6550
3441.122300 67.391 -70.6823
3466.058091 67.230 -70.6464
3491.174576 67.072 -70.5516
3516.473066 66.917 -70.4008
3541.954880 66.765 -70.1958
3567.621345 66.617 -69.9377
3593.473800 66.471 -69.6286
3619.513592 66.330 -69.2719
3645.742080 66.193 -68.8716
3672.160630 66.059 -68.4318
3698.770620 65.929 -67.9543
3725.573436 65.803 -67.4391
3752.570477 65.680 -66.8863
3779.763150 65.561 -66.2963
3807.152872 65.444 -65.6697
3834.741071 65.330 -65.0062
3862.529185 65.218 -64.3031
3890.518664 65.107 -63.5571
3918.710966 64.998 -62.7662
3947.107561 64.891 -61.9302
3975.709929 64.787 -61.0513
4004.519563 64.686 -60.1324
4033.537962 64.588 -59.1772
4062.766641 64.493 -58.1887
4092.207123 64.401 -57.1703
4121.860942 64.312 -56.1254
4151.729646 64.227 -55.0563
4181.814790 64.145 -53.9648
4212.117944 64.066 -52.8513
4242.640687 63.989 -51.7159
4273.384610 63.915 -50.5580
4304.351317 63.843 -49.3754
4335.542421 63.773 -48.1649
4366.959549 63.705 -46.9228
4398.604338 63.639 -45.6456
4430.478438 63.577 -44.3305
4462.583511 63.519 -42.9767
4494.921231 63.467 -41.5856
4527.493283 63.421 -40.1595
4560.301365 63.382 -38.7012
4593.347189 63.350 -37.2149
4626.632476 63.328 -35.7066
4660.158962 63.314 -34.1841
4693.928395 63.310 -32.6559
4727.942535 63.316 -31.1318
4762.203156 63.330 -29.6227
4796.712043 63.353 -28.1398
4831.470996 63.382 -26.6917
4866.481826 63.415 -25.2811
4901.746360 63.451 -23.9033
4937.266434 63.488 -22.5476
4973.043902 63.525 -21.2014
5009.080628 63.563 -19.8560
5045.378492 63.605 -18.5108
5081.939384 63.650 -17.1743
5118.765212 63.698 -15.8600
5155.857894 63.749 -14.5798
5193.219366 63.800 -13.3388
5230.851574 63.849 -12.1337
5268.756481 63.897 -10.9560
5306.936062 63.941 -9.7960
5345.392309 63.984 -8.6448
5384.127225 64.023 -7.4955
5423.142830 64.061 -6.3420
5462.441159 64.096 -5.1771
5502.024259 64.128 -3.9905
5541.894195 64.157 -2.7691
5582.053045 64.183 -1.4979
5622.502902 64.207 -0.1611
5663.245876 64.232 1.2575
5704.284090 64.260 2.7724
5745.619684 64.295 4.3937
5787.254813 64.341 6.1237
5829.191647 64.404 7.9545
5871.432373 64.486 9.8661
5913.979192 64.593 11.8272
5956.834323 64.725 13.7976
6000.000000 64.883 15.7344
6043.478473 65.066 17.5980
6087.272010 65.270 19.3572
6131.382892 65.493 20.9913
6175.813420 65.728 22.4901
6220.565910 65.974 23.8530
6265.642695 66.227 25.0856
6311.046124 66.485 26.1971
6356.778566 66.746 27.1970
6402.842404 67.010 28.0940
6449.240040 67.275 28.8958
6495.973891 67.542 29.6073
6543.046396 67.810 30.2309
6590.460007 68.079 30.7663
6638.217197 68.350 31.2115
6686.320456 68.623 31.5633
6734.772290 68.897 31.8173
6783.575226 69.172 31.9674
6832.731809 69.448 32.0057
6882.244600 69.725 31.9230
6932.116181 70.001 31.7090
6982.349153 70.275 31.3525
7032.946133 70.546 30.8427
7083.909760 70.811 30.1711
7135.242690 71.067 29.3339
7186.947600 71.312 28.3336
7239.027185 71.541 27.1804
7291.484160 71.752 25.8916
7344.321260 71.943 24.4907
7397.541239 72.111 23.0040
7451.146872 72.259 21.4573
7505.140954 72.384 19.8732
7559.526299 72.487 18.2695
7614.305743 72.569 16.6603
7669.482141 72.627 15.0570
7725.058371 72.658 13.4709
7781.037328 72.660 11.9158
7837.421932 72.629 10.4090
7894.215122 72.563 8.9714
7951.419859 72.461 7.6259
8009.039125 72.325 6.3942
8067.075924 72.156 5.2944
8125.533282 71.959 4.3391
8184.414245 71.738 3.5341
8243.721885 71.500 2.8790
8303.459292 71.251 2.3674
8363.629581 70.997 1.9874
8424.235888 70.745 1.7231
8485.281374 70.500 1.5552
8546.769221 70.265 1.4623
8608.702634 70.043 1.4226
8671.084842 69.835 1.4147
8733.919097 69.641 1.4186
8797.208675 69.459 1.4167
8860.956876 69.287 1.3940
8925.167022 69.121 1.3383
8989.842461 68.955 1.2409
9054.986566 68.784 1.0977
9120.602731 68.606 0.9100
9186.694378 68.418 0.6850
9253.264952 68.216 0.4352
9320.317925 67.999 0.1767
9387.856790 67.765 -0.0719
9455.885071 67.510 -0.2903
9524.406312 67.234 -0.4550
9593.424086 66.936 -0.5347
9662.941992 66.614 -0.4857
9732.963653 66.272 -0.2472
9803.492719 65.914 0.2528
9874.532869 65.552 1.0726
9946.087805 65.203 2.2122
10018.161257 64.884 3.5770
10090.756983 64.600 5.0076
10163.878768 64.340 6.3898
10237.530423 64.084 7.7598
10311.715789 63.824 9.2969
10386.438732 63.577 11.1924
10461.703149 63.383 13.4508
10537.512962 63.274 15.7595
10613.872125 63.246 17.6062
10690.784618 63.245 18.6227
10768.254450 63.195 18.8332
10846.285661 63.038 18.6165
10924.882318 62.750 18.5320
11004.048518 62.344 19.1885
11083.788390 61.873 21.1742
11164.106090 61.424 24.9547
11245.005805 61.116 30.6187
11326.491752 61.057 37.5212
11408.568180 61.283 44.3053
11491.239368 61.730 49.6667
11574.509626 62.284 53.0984
11658.383294 62.840 54.8494
11742.864745 63.342 55.4775
11827.958384 63.778 55.5255
11913.668646 64.164 55.3938
12000.000000 64.534 55.3143
12086.956947 64.925 55.3553
12174.544019 65.369 55.4385
12262.765784 65.879 55.3721
12351.626840 66.450 54.9094
12441.131819 67.054 53.8309
12531.285389 67.655 52.0204
12622.092249 68.222 49.4935
12713.557132 68.737 46.3635
12805.684808 69.198 42.7704
12898.480079 69.612 38.8159
12991.947783 69.991 34.5350
13086.092792 70.339 29.9024
13180.920015 70.653 24.8606
13276.434395 70.922 19.3517
13372.640911 71.129 13.3411
13469.544580 71.258 6.8276
13567.150452 71.294 -0.1523
13665.463617 71.223 -7.5263
13764.489200 71.034 -15.1881
13864.232362 70.721 -23.0038
13964.698305 70.280 -30.8221
14065.892266 69.715 -38.4902
14167.819519 69.034 -45.8662
14270.485380 68.249 -52.8292
14373.895200 67.375 -59.2833
14478.054370 66.428 -65.1612
14582.968320 65.426 -70.4271
14688.642520 64.389 -75.0768
14795.082478 63.335 -79.1360
14902.293745 62.281 -82.6556
15010.281908 61.244 -85.7035
15119.052599 60.235 -88.3550
15228.611486 59.266 -90.6840
15338.964283 58.347 -92.7589
15450.116741 57.485 -94.6408
15562.074656 56.688 -96.3849
15674.843864 55.961 -98.0415
15788.430244 55.307 -99.6561
15902.839718 54.724 -101.2697
16018.078250 54.205 -102.9222
16134.151848 53.743 -104.6562
16251.066563 53.331 -106.5147
16368.828491 52.964 -108.5394
16487.443769 52.641 -110.7688
16606.918584 52.359 -113.2383
16727.259161 52.116 -115.9814
16848.471777 51.912 -119.0316
16970.562748 51.752 -122.4269
17093.538442 51.640 -126.2129
17217.405268 51.580 -130.4437
17342.169684 51.574 -135.1799
17467.838194 51.624 -140.4878
17594.417350 51.732 -146.4375
17721.913751 51.898 -153.1030
17850.334044 52.122 -160.5596
17979.684923 52.397 -168.8832
18109.973131 52.710 -178.1497
18241.205462 53.037 171.5696
18373.388756 53.350 160.2166
18506.529905 53.614 147.7573
18640.635849 53.793 134.1904
18775.713581 53.852 119.5535
18911.770141 53.764 103.9271
19048.812624 53.508 87.4165
19186.848172 53.072 70.1155
19325.883983 52.460 52.1044
19465.927305 51.686 33.5665
19606.985439 50.793 15.0928
19749.065738 49.865 -1.9111
19892.175609 49.055 -15.2184
20036.322514 48.566 -22.5575
