* Measurement data measured by REW V5.40 beta 98
* Source: Микрофон (HiBy Digital D1), MICROPHONE (Общая громкость), R, volume: 0,250
* Format: 256k Log Swept Sine, 1 sweep at -15,0 dBFS with no timing reference
* Dated: 03.10.2025 15:55:16
* REW Settings:
*  C-weighting compensation: Off
*  Target level: 75.0 dB
* Note: 
* Measurement: CERAMIC_2
* Smoothing: 1/12 octave
* Frequency Step: 96 ppo
* Start Frequency: 0.36621094 Hz
*
* Freq(Hz) SPL(dB) Phase(degrees)
0.366211 48.916 -23.1257
0.368865 48.914 -23.1534
0.371538 48.911 -23.1949
0.374230 48.907 -23.2469
0.376942 48.903 -23.3066
0.379673 48.898 -23.3720
0.382424 48.894 -23.4419
0.385196 48.889 -23.5153
0.387987 48.884 -23.5917
0.390798 48.879 -23.6710
0.393630 48.874 -23.7530
0.396483 48.869 -23.8377
0.399356 48.864 -23.9250
0.402250 48.858 -24.0150
0.405165 48.853 -24.1075
0.408101 48.848 -24.2028
0.411058 48.843 -24.3008
0.414037 48.837 -24.4015
0.417037 48.832 -24.5049
0.420059 48.826 -24.6111
0.423103 48.821 -24.7200
0.426169 48.815 -24.8318
0.429257 48.810 -24.9463
0.432368 48.804 -25.0637
0.435501 48.799 -25.1840
0.438656 48.793 -25.3072
0.441835 48.787 -25.4332
0.445037 48.782 -25.5621
0.448262 48.776 -25.6940
0.451510 48.770 -25.8288
0.454782 48.764 -25.9666
0.458077 48.758 -26.1074
0.461397 48.752 -26.2511
0.464740 48.746 -26.3978
0.468108 48.740 -26.5476
0.471500 48.734 -26.7003
0.474917 48.728 -26.8561
0.478358 48.722 -27.0150
0.481825 48.716 -27.1768
0.485316 48.709 -27.3417
0.488833 48.703 -27.5097
0.492375 48.697 -27.6807
0.495943 48.690 -27.8548
0.499537 48.684 -28.0320
0.503157 48.677 -28.2122
0.506803 48.671 -28.3954
0.510475 48.664 -28.5817
0.514175 48.657 -28.7710
0.517900 48.651 -28.9634
0.521653 48.644 -29.1588
0.525434 48.637 -29.3572
0.529241 48.630 -29.5586
0.533076 48.624 -29.7630
0.536939 48.617 -29.9703
0.540830 48.610 -30.1806
0.544749 48.603 -30.3938
0.548696 48.596 -30.6100
0.552673 48.588 -30.8290
0.556677 48.581 -31.0508
0.560711 48.574 -31.2754
0.564774 48.567 -31.5028
0.568867 48.559 -31.7330
0.572989 48.552 -31.9658
0.577141 48.544 -32.2013
0.581324 48.537 -32.4395
0.585536 48.529 -32.6801
0.589779 48.522 -32.9233
0.594053 48.514 -33.1690
0.598358 48.506 -33.4170
0.602694 48.499 -33.6674
0.607061 48.491 -33.9200
0.611460 48.483 -34.1748
0.615891 48.475 -34.4318
0.620354 48.467 -34.6908
0.624849 48.459 -34.9518
0.629377 48.451 -35.2147
0.633938 48.443 -35.4794
0.638532 48.434 -35.7458
0.643159 48.426 -36.0138
0.647819 48.418 -36.2833
0.652514 48.409 -36.5542
0.657242 48.401 -36.8265
0.662005 48.392 -37.0999
0.666802 48.384 -37.3744
0.671634 48.375 -37.6498
0.676501 48.366 -37.9261
0.681403 48.357 -38.2031
0.686341 48.348 -38.4806
0.691314 48.340 -38.7586
0.696324 48.330 -39.0368
0.701370 48.321 -39.3153
0.706452 48.312 -39.5939
0.711571 48.303 -39.8727
0.716728 48.293 -40.1516
0.721921 48.283 -40.4310
0.727153 48.272 -40.7114
0.732422 48.260 -40.9934
0.737729 48.248 -41.2779
0.743075 48.234 -41.5658
0.748460 48.221 -41.8578
0.753883 48.206 -42.1546
0.759346 48.191 -42.4566
0.764849 48.176 -42.7639
0.770391 48.161 -43.0768
0.775974 48.145 -43.3952
0.781597 48.129 -43.7193
0.787261 48.113 -44.0489
0.792966 48.097 -44.3842
0.798712 48.080 -44.7251
0.804500 48.064 -45.0715
0.810329 48.046 -45.4235
0.816201 48.029 -45.7809
0.822116 48.012 -46.1438
0.828073 47.994 -46.5120
0.834074 47.976 -46.8855
0.840118 47.957 -47.2643
0.846206 47.939 -47.6482
0.852338 47.920 -48.0371
0.858514 47.900 -48.4311
0.864735 47.881 -48.8298
0.871001 47.861 -49.2334
0.877313 47.840 -49.6415
0.883670 47.819 -50.0542
0.890074 47.798 -50.4712
0.896524 47.777 -50.8924
0.903020 47.755 -51.3177
0.909564 47.732 -51.7468
0.916155 47.709 -52.1797
0.922794 47.686 -52.6160
0.929481 47.662 -53.0557
0.936216 47.638 -53.4984
0.943000 47.613 -53.9440
0.949834 47.588 -54.3922
0.956717 47.562 -54.8428
0.963649 47.535 -55.2955
0.970632 47.508 -55.7500
0.977666 47.481 -56.2061
0.984750 47.452 -56.6634
0.991886 47.423 -57.1216
0.999074 47.394 -57.5804
1.006314 47.363 -58.0394
1.013606 47.332 -58.4983
1.020951 47.301 -58.9566
1.028349 47.268 -59.4141
1.035801 47.235 -59.8703
1.043307 47.201 -60.3248
1.050867 47.166 -60.7772
1.058482 47.130 -61.2272
1.066152 47.094 -61.6744
1.073878 47.056 -62.1187
1.081660 47.018 -62.5601
1.089498 46.979 -62.9988
1.097393 46.939 -63.4355
1.105345 46.898 -63.8710
1.113355 46.857 -64.3063
1.121423 46.815 -64.7426
1.129549 46.773 -65.1804
1.137734 46.730 -65.6204
1.145979 46.687 -66.0631
1.154283 46.643 -66.5087
1.162647 46.599 -66.9574
1.171072 46.554 -67.4094
1.179558 46.508 -67.8649
1.188106 46.462 -68.3239
1.196715 46.414 -68.7865
1.205387 46.366 -69.2529
1.214122 46.317 -69.7231
1.222920 46.267 -70.1972
1.231782 46.216 -70.6751
1.240708 46.164 -71.1570
1.249699 46.111 -71.6429
1.258754 46.056 -72.1327
1.267876 46.000 -72.6265
1.277063 45.943 -73.1241
1.286318 45.884 -73.6256
1.295639 45.824 -74.1308
1.305027 45.762 -74.6396
1.314484 45.698 -75.1519
1.324009 45.633 -75.6674
1.333604 45.565 -76.1860
1.343268 45.496 -76.7075
1.353002 45.424 -77.2314
1.362806 45.350 -77.7575
1.372681 45.274 -78.2853
1.382628 45.195 -78.8144
1.392647 45.114 -79.3444
1.402739 45.030 -79.8746
1.412904 44.943 -80.4046
1.423142 44.854 -80.9340
1.433455 44.762 -81.4622
1.443843 44.667 -81.9892
1.454305 44.570 -82.5151
1.464844 44.471 -83.0405
1.475459 44.371 -83.5662
1.486150 44.270 -84.0935
1.496920 44.168 -84.6233
1.507767 44.066 -85.1565
1.518693 43.964 -85.6936
1.529698 43.861 -86.2350
1.540783 43.757 -86.7808
1.551948 43.652 -87.3311
1.563194 43.546 -87.8858
1.574521 43.437 -88.4449
1.585931 43.326 -89.0080
1.597423 43.212 -89.5749
1.608999 43.095 -90.1452
1.620658 42.973 -90.7186
1.632402 42.847 -91.2943
1.644232 42.715 -91.8719
1.656146 42.578 -92.4505
1.668147 42.434 -93.0292
1.680235 42.283 -93.6070
1.692411 42.125 -94.1827
1.704675 41.958 -94.7549
1.717028 41.782 -95.3220
1.729470 41.595 -95.8822
1.742003 41.398 -96.4335
1.754626 41.190 -96.9734
1.767341 40.968 -97.4995
1.780147 40.733 -98.0089
1.793047 40.483 -98.4988
1.806040 40.215 -98.9661
1.819128 39.927 -99.4080
1.832310 39.617 -99.8219
1.845587 39.280 -100.2057
1.858961 38.913 -100.5575
1.872432 38.515 -100.8751
1.886001 38.085 -101.1562
1.899667 37.624 -101.3979
1.913433 37.132 -101.5967
1.927299 36.612 -101.7480
1.941265 36.067 -101.8464
1.955332 35.501 -101.8854
1.969501 34.916 -101.8567
1.983773 34.318 -101.7506
1.998148 33.710 -101.5552
2.012627 33.098 -101.2559
2.027212 32.486 -100.8349
2.041902 31.881 -100.2705
2.056698 31.288 -99.5359
2.071602 30.714 -98.5983
2.086614 30.167 -97.4175
2.101734 29.655 -95.9442
2.116964 29.185 -94.1179
2.132304 28.767 -91.8656
2.147756 28.411 -89.0999
2.163320 28.125 -85.7192
2.178996 27.918 -81.6112
2.194786 27.796 -76.6642
2.210690 27.764 -70.7940
2.226710 27.820 -63.9936
2.242845 27.964 -56.3951
2.259098 28.191 -48.3054
2.275468 28.492 -40.1666
2.291957 28.862 -32.4385
2.308566 29.291 -25.4702
2.325295 29.771 -19.4396
2.342145 30.293 -14.3728
2.359117 30.849 -10.2001
2.376212 31.429 -6.8097
2.393431 32.026 -4.0823
2.410775 32.630 -1.9079
2.428244 33.234 -0.1926
2.445840 33.830 1.1411
2.463564 34.411 2.1553
2.481416 34.971 2.8995
2.499397 35.505 3.4126
2.517509 36.008 3.7254
2.535752 36.480 3.8616
2.554127 36.921 3.8407
2.572635 37.334 3.6786
2.591277 37.725 3.3900
2.610055 38.098 2.9890
2.628968 38.456 2.4900
2.648019 38.802 1.9073
2.667208 39.136 1.2540
2.686535 39.461 0.5423
2.706003 39.777 -0.2169
2.725612 40.083 -1.0146
2.745363 40.380 -1.8427
2.765257 40.669 -2.6950
2.785295 40.948 -3.5665
2.805478 41.220 -4.4535
2.825808 41.482 -5.3539
2.846285 41.736 -6.2668
2.866910 41.981 -7.1936
2.887685 42.216 -8.1374
2.908611 42.443 -9.1036
2.929688 42.659 -10.0992
2.950917 42.864 -11.1315
2.972301 43.058 -12.2059
2.993839 43.241 -13.3246
3.015534 43.412 -14.4858
3.037386 43.571 -15.6850
3.059396 43.719 -16.9161
3.081565 43.857 -18.1721
3.103896 43.985 -19.4457
3.126388 44.104 -20.7303
3.149043 44.214 -22.0197
3.171862 44.316 -23.3089
3.194847 44.411 -24.5944
3.217998 44.500 -25.8749
3.241317 44.582 -27.1516
3.264805 44.658 -28.4292
3.288463 44.729 -29.7159
3.312293 44.793 -31.0226
3.336295 44.850 -32.3601
3.360471 44.900 -33.7361
3.384822 44.941 -35.1537
3.409350 44.975 -36.6117
3.434056 45.000 -38.1052
3.458940 45.016 -39.6272
3.484005 45.024 -41.1689
3.509252 45.022 -42.7211
3.534681 45.010 -44.2747
3.560295 44.989 -45.8218
3.586094 44.959 -47.3567
3.612081 44.919 -48.8773
3.638255 44.870 -50.3867
3.664620 44.812 -51.8932
3.691175 44.744 -53.4096
3.717923 44.668 -54.9493
3.744864 44.582 -56.5227
3.772001 44.486 -58.1351
3.799335 44.378 -59.7870
3.826866 44.258 -61.4743
3.854597 44.123 -63.1897
3.882529 43.974 -64.9232
3.910664 43.807 -66.6632
3.939002 43.624 -68.3986
3.967546 43.423 -70.1200
3.996296 43.207 -71.8232
4.025255 42.976 -73.5104
4.054423 42.733 -75.1918
4.083804 42.480 -76.8824
4.113396 42.216 -78.5977
4.143204 41.936 -80.3496
4.173227 41.634 -82.1450
4.203468 41.301 -83.9854
4.233928 40.926 -85.8660
4.264609 40.498 -87.7764
4.295512 40.004 -89.7011
4.326639 39.431 -91.6215
4.357992 38.765 -93.5185
4.389572 37.990 -95.3780
4.421380 37.091 -97.1951
4.453419 36.056 -98.9757
4.485691 34.880 -100.7333
4.518196 33.569 -102.4849
4.550936 32.136 -104.2467
4.583914 30.608 -106.0302
4.617131 29.026 -107.8357
4.650589 27.461 -109.6356
4.684289 26.041 -111.3183
4.718233 24.980 -112.3568
4.752424 24.541 -100.1084
4.786862 24.884 57.1327
4.821549 25.908 56.7512
4.856488 27.352 55.0697
4.891680 28.981 53.1552
4.927127 30.645 51.1954
4.962831 32.258 49.2420
4.998794 33.769 47.3036
5.035017 35.148 45.3700
5.071503 36.377 43.4218
5.108253 37.449 41.4365
5.145270 38.369 39.3955
5.182555 39.151 37.2910
5.220110 39.812 35.1309
5.257937 40.370 32.9348
5.296038 40.845 30.7276
5.334415 41.253 28.5313
5.373071 41.614 26.3610
5.412006 41.940 24.2210
5.451224 42.242 22.1048
5.490725 42.526 19.9967
5.530514 42.792 17.8775
5.570590 43.037 15.7336
5.610957 43.258 13.5632
5.651616 43.455 11.3761
5.692570 43.626 9.1901
5.733821 43.775 7.0239
5.775370 43.900 4.8923
5.817221 44.005 2.8015
5.859375 44.090 0.7471
5.901834 44.154 -1.2833
5.944602 44.197 -3.3017
5.987679 44.219 -5.3128
6.031068 44.220 -7.3104
6.074771 44.200 -9.2795
6.118792 44.159 -11.2003
6.163131 44.098 -13.0537
6.207792 44.017 -14.8265
6.252776 43.915 -16.5140
6.298086 43.793 -18.1184
6.343725 43.650 -19.6416
6.389694 43.489 -21.0798
6.435996 43.310 -22.4208
6.482634 43.116 -23.6445
6.529610 42.907 -24.7257
6.576926 42.684 -25.6379
6.624585 42.448 -26.3580
6.672590 42.202 -26.8695
6.720942 41.948 -27.1620
6.769645 41.693 -27.2298
6.818700 41.445 -27.0694
6.868111 41.214 -26.6778
6.917881 41.009 -26.0528
6.968010 40.838 -25.1944
7.018504 40.705 -24.1113
7.069362 40.614 -22.8311
7.120590 40.566 -21.4056
7.172189 40.565 -19.9075
7.224161 40.613 -18.4196
7.276511 40.712 -17.0202
7.329239 40.862 -15.7720
7.382350 41.062 -14.7177
7.435845 41.305 -13.8862
7.489729 41.584 -13.2999
7.544002 41.887 -12.9767
7.598669 42.203 -12.9290
7.653732 42.525 -13.1605
7.709194 42.845 -13.6643
7.765058 43.160 -14.4225
7.821327 43.469 -15.4101
7.878004 43.768 -16.6003
7.935091 44.055 -17.9690
7.992592 44.326 -19.4980
8.050510 44.581 -21.1745
8.108847 44.816 -22.9875
8.167607 45.033 -24.9231
8.226793 45.231 -26.9617
8.286408 45.409 -29.0815
8.346454 45.569 -31.2632
8.406936 45.709 -33.4940
8.467856 45.831 -35.7671
8.529218 45.933 -38.0767
8.591024 46.017 -40.4120
8.653278 46.082 -42.7570
8.715983 46.129 -45.0944
8.779143 46.158 -47.4107
8.842760 46.171 -49.6981
8.906839 46.166 -51.9513
8.971381 46.144 -54.1618
9.036392 46.107 -56.3165
9.101873 46.055 -58.3999
9.167829 45.989 -60.3983
9.234263 45.909 -62.3026
9.301178 45.817 -64.1055
9.368578 45.715 -65.7986
9.436467 45.603 -67.3711
9.504847 45.484 -68.8110
9.573723 45.359 -70.1076
9.643099 45.231 -71.2539
9.712976 45.100 -72.2463
9.783361 44.970 -73.0832
9.854255 44.842 -73.7634
9.925663 44.719 -74.2862
9.997588 44.602 -74.6539
10.070035 44.494 -74.8738
10.143007 44.396 -74.9583
10.216507 44.310 -74.9223
10.290540 44.237 -74.7815
10.365109 44.182 -74.5515
10.440219 44.145 -74.2496
10.515873 44.130 -73.8956
10.592076 44.139 -73.5092
10.668830 44.173 -73.1075
10.746141 44.229 -72.7046
10.824012 44.303 -72.3122
10.902447 44.390 -71.9409
10.981451 44.485 -71.5987
11.061027 44.585 -71.2918
11.141180 44.688 -71.0235
11.221913 44.796 -70.7958
11.303232 44.910 -70.6097
11.385140 45.030 -70.4653
11.467641 45.157 -70.3620
11.550741 45.290 -70.2987
11.634442 45.426 -70.2739
11.718750 45.564 -70.2859
11.803669 45.701 -70.3324
11.889203 45.833 -70.4108
11.975357 45.959 -70.5179
12.062136 46.077 -70.6502
12.149543 46.185 -70.8035
12.237583 46.284 -70.9733
12.326262 46.379 -71.1541
12.415583 46.471 -71.3398
12.505552 46.562 -71.5248
12.596172 46.654 -71.7033
12.687449 46.745 -71.8697
12.779387 46.834 -72.0187
12.871992 46.920 -72.1460
12.965268 47.002 -72.2495
13.059220 47.081 -72.3284
13.153852 47.159 -72.3839
13.249170 47.237 -72.4192
13.345179 47.317 -72.4400
13.441884 47.401 -72.4543
13.539289 47.491 -72.4719
13.637401 47.586 -72.5033
13.736223 47.685 -72.5591
13.835761 47.785 -72.6503
13.936021 47.883 -72.7866
14.037007 47.978 -72.9751
14.138725 48.068 -73.2201
14.241180 48.155 -73.5232
14.344377 48.238 -73.8824
14.448323 48.314 -74.2922
14.553021 48.383 -74.7434
14.658478 48.441 -75.2236
14.764700 48.486 -75.7188
14.871691 48.517 -76.2125
14.979457 48.532 -76.6865
15.088005 48.533 -77.1231
15.197339 48.522 -77.5055
15.307465 48.501 -77.8191
15.418389 48.475 -78.0517
15.530117 48.448 -78.1964
15.642655 48.423 -78.2523
15.756008 48.404 -78.2244
15.870182 48.393 -78.1245
15.985184 48.394 -77.9709
16.101019 48.411 -77.7874
16.217694 48.445 -77.6003
16.335214 48.496 -77.4365
16.453586 48.562 -77.3213
16.572815 48.640 -77.2754
16.692909 48.725 -77.3129
16.813872 48.812 -77.4408
16.935713 48.898 -77.6588
17.058436 48.980 -77.9599
17.182048 49.056 -78.3308
17.306556 49.125 -78.7547
17.431967 49.186 -79.2121
17.558286 49.238 -79.6826
17.685521 49.282 -80.1468
17.813677 49.318 -80.5880
17.942762 49.348 -80.9932
18.072783 49.375 -81.3539
18.203746 49.403 -81.6672
18.335658 49.434 -81.9351
18.468526 49.471 -82.1638
18.602356 49.514 -82.3633
18.737156 49.564 -82.5446
18.872934 49.619 -82.7189
19.009695 49.679 -82.8952
19.147447 49.744 -83.0798
19.286197 49.813 -83.2748
19.425953 49.883 -83.4791
19.566721 49.954 -83.6883
19.708510 50.024 -83.8962
19.851326 50.093 -84.0964
19.995177 50.162 -84.2837
20.140070 50.233 -84.4553
20.286013 50.306 -84.6120
20.433014 50.384 -84.7581
20.581080 50.466 -84.9011
20.730219 50.550 -85.0504
20.880439 50.636 -85.2158
21.031747 50.724 -85.4056
21.184152 50.811 -85.6246
21.337661 50.896 -85.8736
21.492282 50.978 -86.1481
21.648024 51.055 -86.4393
21.804895 51.127 -86.7348
21.962902 51.192 -87.0202
22.122054 51.254 -87.2813
22.282360 51.311 -87.5063
22.443827 51.367 -87.6876
22.606464 51.420 -87.8233
22.770280 51.472 -87.9176
22.935283 51.525 -87.9802
23.101481 51.581 -88.0253
23.268884 51.642 -88.0688
23.437500 51.709 -88.1263
23.607338 51.782 -88.2104
23.778406 51.858 -88.3290
23.950714 51.936 -88.4849
24.124271 52.013 -88.6758
24.299086 52.087 -88.8957
24.475167 52.157 -89.1366
24.652524 52.223 -89.3898
24.831166 52.282 -89.6478
25.011103 52.336 -89.9041
25.192344 52.385 -90.1543
25.374898 52.430 -90.3944
25.558775 52.472 -90.6204
25.743984 52.512 -90.8274
25.930536 52.548 -91.0088
26.118439 52.583 -91.1571
26.307704 52.618 -91.2654
26.498341 52.655 -91.3295
26.690359 52.697 -91.3509
26.883768 52.746 -91.3385
27.078579 52.805 -91.3096
27.274801 52.876 -91.2886
27.472446 52.958 -91.3038
27.671522 53.049 -91.3820
27.872042 53.144 -91.5431
28.074014 53.239 -91.7958
28.277450 53.328 -92.1348
28.482360 53.406 -92.5412
28.688755 53.470 -92.9847
28.896645 53.518 -93.4292
29.106042 53.551 -93.8374
29.316957 53.573 -94.1785
29.529400 53.589 -94.4325
29.743382 53.606 -94.5946
29.958915 53.629 -94.6757
30.176009 53.663 -94.7001
30.394677 53.710 -94.6996
30.614929 53.769 -94.7064
30.836778 53.839 -94.7461
31.060234 53.915 -94.8335
31.285309 53.992 -94.9712
31.512015 54.068 -95.1517
31.740364 54.141 -95.3616
31.970368 54.211 -95.5863
32.202039 54.278 -95.8140
32.435388 54.344 -96.0380
32.670428 54.410 -96.2562
32.907171 54.478 -96.4698
33.145630 54.546 -96.6808
33.385817 54.615 -96.8893
33.627745 54.684 -97.0928
33.871425 54.753 -97.2871
34.116871 54.823 -97.4688
34.364096 54.893 -97.6377
34.613113 54.966 -97.7982
34.863934 55.042 -97.9600
35.116572 55.119 -98.1348
35.371041 55.197 -98.3327
35.627354 55.273 -98.5581
35.885525 55.344 -98.8068
36.145566 55.409 -99.0669
36.407492 55.468 -99.3214
36.671316 55.521 -99.5544
36.937051 55.572 -99.7559
37.204712 55.624 -99.9264
37.474313 55.678 -100.0761
37.745867 55.735 -100.2218
38.019389 55.794 -100.3795
38.294893 55.853 -100.5589
38.572394 55.909 -100.7595
38.851905 55.960 -100.9724
39.133442 56.006 -101.1856
39.417019 56.049 -101.3910
39.702651 56.090 -101.5891
39.990353 56.132 -101.7890
40.280140 56.176 -102.0031
40.572026 56.220 -102.2396
40.866028 56.264 -102.4960
41.162160 56.307 -102.7598
41.460438 56.348 -103.0146
41.760877 56.392 -103.2493
42.063494 56.441 -103.4655
42.368303 56.499 -103.6775
42.675322 56.564 -103.9036
42.984565 56.636 -104.1542
43.296048 56.710 -104.4242
43.609789 56.786 -104.6959
43.925804 56.862 -104.9501
44.244108 56.944 -105.1809
44.564719 57.034 -105.4010
44.887654 57.131 -105.6325
45.212928 57.231 -105.8886
45.540560 57.330 -106.1594
45.870565 57.427 -106.4151
46.202962 57.527 -106.6298
46.537768 57.636 -106.8134
46.875000 57.762 -107.0283
47.214676 57.902 -107.3702
47.556813 58.040 -107.9164
47.901429 58.155 -108.6702
48.248542 58.226 -109.5391
48.598171 58.244 -110.3579
48.950334 58.216 -110.9501
49.305048 58.166 -111.2016
49.662333 58.123 -111.1171
50.022206 58.110 -110.8211
50.384688 58.130 -110.4916
50.749796 58.172 -110.2640
51.117550 58.218 -110.1748
51.487969 58.258 -110.1743
51.861072 58.292 -110.1876
52.236879 58.327 -110.1730
52.615409 58.373 -110.1432
52.996681 58.431 -110.1444
53.380717 58.498 -110.2175
53.767536 58.568 -110.3737
54.157158 58.637 -110.6003
54.549603 58.705 -110.8794
54.944892 58.771 -111.2020
55.343045 58.834 -111.5644
55.744084 58.893 -111.9561
56.148028 58.946 -112.3547
56.554900 58.997 -112.7345
56.964720 59.049 -113.0816
57.377510 59.104 -113.4036
57.793291 59.164 -113.7230
58.212085 59.226 -114.0620
58.633914 59.286 -114.4278
59.058799 59.341 -114.8075
59.486764 59.391 -115.1746
59.917829 59.437 -115.5011
60.352019 59.481 -115.7685
60.789354 59.528 -115.9768
61.229859 59.581 -116.1452
61.673556 59.640 -116.3058
62.120468 59.705 -116.4905
62.570618 59.775 -116.7196
63.024031 59.845 -116.9965
63.480729 59.914 -117.3117
63.940736 59.980 -117.6510
64.404077 60.042 -118.0026
64.870776 60.099 -118.3582
65.340856 60.150 -118.7109
65.814343 60.197 -119.0540
66.291261 60.242 -119.3809
66.771635 60.289 -119.6882
67.255489 60.339 -119.9792
67.742850 60.395 -120.2633
68.233743 60.455 -120.5532
68.728193 60.517 -120.8588
69.226226 60.578 -121.1815
69.727867 60.634 -121.5154
70.233144 60.687 -121.8525
70.742083 60.735 -122.1893
71.254709 60.782 -122.5271
71.771050 60.827 -122.8687
72.291132 60.872 -123.2132
72.814984 60.918 -123.5564
73.342631 60.966 -123.8940
73.874102 61.017 -124.2241
74.409424 61.070 -124.5477
74.948626 61.124 -124.8659
75.491734 61.179 -125.1804
76.038779 61.234 -125.4943
76.589787 61.287 -125.8142
77.144788 61.339 -126.1470
77.703811 61.386 -126.4964
78.266885 61.429 -126.8612
78.834039 61.468 -127.2382
79.405303 61.504 -127.6252
79.980706 61.537 -128.0209
80.560280 61.569 -128.4234
81.144053 61.599 -128.8284
81.732056 61.630 -129.2296
82.324320 61.663 -129.6178
82.920876 61.698 -129.9848
83.521755 61.741 -130.3320
84.126988 61.790 -130.6753
84.736607 61.846 -131.0364
85.350643 61.903 -131.4253
85.969129 61.958 -131.8339
86.592097 62.009 -132.2468
87.219579 62.056 -132.6553
87.851608 62.101 -133.0605
88.488217 62.143 -133.4672
89.129439 62.183 -133.8791
89.775308 62.220 -134.2978
90.425856 62.254 -134.7220
91.081119 62.286 -135.1476
91.741131 62.317 -135.5697
92.405925 62.348 -135.9847
93.075536 62.381 -136.3917
93.750000 62.414 -136.7917
94.429351 62.449 -137.1874
95.113625 62.484 -137.5819
95.802858 62.518 -137.9780
96.497085 62.550 -138.3784
97.196342 62.580 -138.7855
97.900667 62.607 -139.2000
98.610096 62.633 -139.6200
99.324665 62.658 -140.0421
100.044413 62.684 -140.4650
100.769376 62.713 -140.8892
101.499592 62.743 -141.3153
102.235100 62.775 -141.7427
102.975938 62.806 -142.1695
103.722144 62.837 -142.5945
104.473757 62.865 -143.0180
105.230817 62.890 -143.4424
105.993363 62.911 -143.8709
106.761435 62.929 -144.3055
107.535072 62.943 -144.7462
108.314315 62.954 -145.1914
109.099206 62.965 -145.6403
109.889783 62.974 -146.0906
110.686090 62.983 -146.5360
111.488167 62.993 -146.9699
112.296056 63.005 -147.3917
113.109800 63.021 -147.8082
113.929440 63.040 -148.2273
114.755020 63.064 -148.6533
115.586582 63.089 -149.0840
116.424170 63.114 -149.5139
117.267827 63.136 -149.9401
118.117598 63.153 -150.3636
118.973527 63.164 -150.7863
119.835658 63.169 -151.2086
120.704037 63.169 -151.6303
121.578708 63.166 -152.0517
122.459718 63.164 -152.4727
123.347111 63.164 -152.8936
124.240935 63.166 -153.3155
125.141236 63.170 -153.7377
126.048061 63.175 -154.1570
126.961458 63.180 -154.5708
127.881473 63.186 -154.9805
128.808154 63.191 -155.3895
129.741551 63.193 -155.8000
130.681712 63.194 -156.2115
131.628686 63.192 -156.6223
132.582521 63.188 -157.0302
133.543269 63.185 -157.4334
134.510979 63.181 -157.8310
135.485701 63.178 -158.2229
136.467486 63.173 -158.6102
137.456386 63.166 -158.9946
138.452451 63.158 -159.3769
139.455735 63.146 -159.7563
140.466288 63.133 -160.1319
141.484165 63.119 -160.5041
142.509418 63.106 -160.8739
143.542100 63.094 -161.2423
144.582265 63.083 -161.6093
145.629968 63.072 -161.9740
146.685262 63.060 -162.3354
147.748204 63.047 -162.6926
148.818849 63.034 -163.0445
149.897251 63.020 -163.3906
150.983469 63.007 -163.7315
152.077557 62.995 -164.0694
153.179574 62.986 -164.4054
154.289576 62.978 -164.7374
155.407622 62.970 -165.0615
156.533770 62.962 -165.3762
157.668078 62.953 -165.6838
158.810606 62.942 -165.9885
159.961413 62.928 -166.2935
161.120559 62.911 -166.5993
162.288105 62.893 -166.9044
163.464112 62.873 -167.2071
164.648640 62.853 -167.5058
165.841752 62.831 -167.7988
167.043510 62.807 -168.0841
168.253976 62.780 -168.3615
169.473213 62.751 -168.6328
170.701286 62.719 -168.9014
171.938258 62.685 -169.1698
173.184194 62.650 -169.4398
174.439158 62.613 -169.7118
175.703216 62.573 -169.9852
176.976434 62.532 -170.2581
178.258878 62.489 -170.5274
179.550615 62.445 -170.7894
180.851713 62.402 -171.0412
182.162239 62.362 -171.2825
183.482262 62.327 -171.5144
184.811850 62.298 -171.7381
186.151073 62.275 -171.9532
187.500000 62.258 -172.1597
188.858702 62.244 -172.3589
190.227250 62.232 -172.5542
191.605715 62.221 -172.7485
192.994169 62.208 -172.9436
194.392685 62.193 -173.1403
195.801334 62.177 -173.3376
197.220191 62.157 -173.5320
198.649330 62.135 -173.7195
200.088825 62.110 -173.8963
201.538751 62.083 -174.0598
202.999184 62.053 -174.2103
204.470200 62.022 -174.3512
205.951875 61.990 -174.4870
207.444287 61.957 -174.6217
208.947514 61.923 -174.7573
210.461634 61.888 -174.8947
211.986726 61.854 -175.0335
213.522869 61.820 -175.1706
215.070144 61.787 -175.3019
216.628631 61.754 -175.4245
218.198411 61.721 -175.5377
219.779567 61.688 -175.6428
221.372180 61.655 -175.7425
222.976334 61.622 -175.8404
224.592112 61.590 -175.9386
226.219600 61.558 -176.0362
227.858880 61.527 -176.1311
229.510039 61.494 -176.2217
231.173164 61.461 -176.3083
232.848340 61.427 -176.3920
234.535655 61.393 -176.4746
236.235197 61.360 -176.5572
237.947054 61.326 -176.6387
239.671317 61.294 -176.7166
241.408074 61.262 -176.7875
243.157416 61.230 -176.8488
244.919435 61.199 -176.8982
246.694223 61.168 -176.9342
248.481871 61.136 -176.9571
250.282473 61.103 -176.9700
252.096123 61.069 -176.9786
253.922915 61.035 -176.9882
255.762945 61.002 -177.0021
257.616309 60.968 -177.0203
259.483103 60.934 -177.0402
261.363424 60.900 -177.0584
263.257372 60.866 -177.0731
265.165043 60.833 -177.0846
267.086538 60.800 -177.0933
269.021957 60.766 -177.0988
270.971401 60.731 -177.1003
272.934972 60.695 -177.0977
274.912771 60.657 -177.0908
276.904902 60.619 -177.0789
278.911469 60.579 -177.0605
280.932577 60.539 -177.0329
282.968330 60.500 -176.9929
285.018835 60.462 -176.9373
287.084199 60.426 -176.8654
289.164530 60.391 -176.7801
291.259935 60.359 -176.6856
293.370525 60.329 -176.5848
295.496408 60.300 -176.4791
297.637697 60.271 -176.3677
299.794503 60.242 -176.2496
301.966937 60.213 -176.1255
304.155114 60.183 -175.9987
306.359147 60.153 -175.8741
308.579152 60.123 -175.7539
310.815244 60.094 -175.6364
313.067539 60.064 -175.5177
315.336156 60.034 -175.3946
317.621211 60.003 -175.2645
319.922826 59.973 -175.1254
322.241118 59.944 -174.9779
324.576210 59.917 -174.8238
326.928223 59.893 -174.6651
329.297280 59.872 -174.5031
331.683504 59.853 -174.3392
334.087019 59.835 -174.1757
336.507952 59.818 -174.0164
338.946427 59.801 -173.8662
341.402572 59.785 -173.7282
343.876516 59.769 -173.6040
346.368387 59.754 -173.4946
348.878315 59.738 -173.4014
351.406431 59.720 -173.3260
353.952867 59.701 -173.2690
356.517756 59.679 -173.2280
359.101230 59.652 -173.1972
361.703426 59.622 -173.1670
364.324478 59.586 -173.1249
366.964523 59.545 -173.0582
369.623699 59.499 -172.9544
372.302145 59.448 -172.8018
375.000000 59.394 -172.5911
377.717405 59.340 -172.3178
380.454501 59.289 -171.9822
383.211431 59.243 -171.5900
385.988339 59.205 -171.1529
388.785369 59.176 -170.6888
391.602668 59.157 -170.2184
394.440383 59.146 -169.7607
397.298660 59.142 -169.3300
400.177650 59.144 -168.9360
403.077502 59.151 -168.5835
405.998368 59.160 -168.2723
408.940400 59.172 -167.9976
411.903750 59.184 -167.7527
414.888575 59.195 -167.5304
417.895028 59.204 -167.3258
420.923268 59.212 -167.1359
423.973452 59.219 -166.9590
427.045738 59.223 -166.7940
430.140287 59.227 -166.6400
433.257261 59.230 -166.4960
436.396822 59.232 -166.3607
439.559133 59.233 -166.2321
442.744360 59.231 -166.1085
445.952668 59.228 -165.9890
449.184225 59.222 -165.8718
452.439199 59.215 -165.7538
455.717760 59.206 -165.6304
459.020079 59.196 -165.4981
462.346327 59.184 -165.3563
465.696680 59.170 -165.2066
469.071310 59.155 -165.0495
472.470394 59.140 -164.8843
475.894109 59.124 -164.7120
479.342634 59.107 -164.5341
482.816148 59.090 -164.3519
486.314833 59.072 -164.1658
489.838871 59.053 -163.9755
493.388445 59.035 -163.7792
496.963741 59.016 -163.5759
500.564945 58.998 -163.3655
504.192245 58.981 -163.1486
507.845830 58.964 -162.9254
511.525890 58.948 -162.6964
515.232618 58.931 -162.4623
518.966206 58.915 -162.2231
522.726849 58.900 -161.9782
526.514743 58.885 -161.7280
530.330086 58.871 -161.4738
534.173076 58.856 -161.2170
538.043915 58.841 -160.9572
541.942803 58.826 -160.6927
545.869944 58.811 -160.4224
549.825542 58.796 -160.1468
553.809805 58.783 -159.8680
557.822939 58.769 -159.5877
561.865154 58.756 -159.3062
565.936660 58.741 -159.0228
570.037671 58.726 -158.7371
574.168399 58.710 -158.4489
578.329060 58.695 -158.1572
582.519870 58.681 -157.8607
586.741049 58.669 -157.5574
590.992817 58.657 -157.2467
595.275394 58.646 -156.9299
599.589005 58.636 -156.6105
603.933874 58.628 -156.2926
608.310228 58.620 -155.9780
612.718295 58.612 -155.6659
617.158304 58.605 -155.3535
621.630488 58.598 -155.0369
626.135079 58.591 -154.7140
630.672311 58.584 -154.3855
635.242423 58.577 -154.0541
639.845651 58.571 -153.7226
644.482237 58.566 -153.3927
649.152421 58.563 -153.0646
653.856447 58.560 -152.7378
658.594560 58.559 -152.4121
663.367008 58.559 -152.0869
668.174039 58.559 -151.7597
673.015903 58.557 -151.4273
677.892854 58.554 -151.0878
682.805145 58.550 -150.7408
687.753032 58.544 -150.3859
692.736774 58.539 -150.0229
697.756631 58.533 -149.6538
702.812863 58.528 -149.2827
707.905735 58.522 -148.9132
713.035511 58.517 -148.5468
718.202461 58.511 -148.1838
723.406852 58.505 -147.8243
728.648956 58.499 -147.4677
733.929047 58.493 -147.1117
739.247399 58.487 -146.7528
744.604290 58.482 -146.3885
750.000000 58.477 -146.0178
755.434809 58.474 -145.6422
760.909001 58.471 -145.2654
766.422861 58.469 -144.8903
771.976677 58.466 -144.5174
777.570739 58.465 -144.1461
783.205337 58.463 -143.7754
788.880766 58.463 -143.4041
794.597321 58.464 -143.0302
800.355301 58.466 -142.6506
806.155005 58.469 -142.2647
811.996736 58.470 -141.8742
817.880799 58.471 -141.4808
823.807501 58.470 -141.0841
829.777150 58.468 -140.6841
835.790057 58.464 -140.2829
841.846536 58.459 -139.8842
847.946903 58.454 -139.4902
854.091476 58.450 -139.0993
860.280575 58.445 -138.7075
866.514523 58.439 -138.3098
872.793644 58.432 -137.9026
879.118267 58.424 -137.4856
885.488720 58.415 -137.0611
891.905336 58.406 -136.6314
898.368450 58.398 -136.1981
904.878398 58.391 -135.7614
911.435520 58.384 -135.3208
918.040157 58.377 -134.8771
924.692655 58.369 -134.4316
931.393359 58.360 -133.9850
938.142619 58.349 -133.5357
944.940787 58.339 -133.0811
951.788218 58.329 -132.6198
958.685268 58.320 -132.1523
965.632296 58.311 -131.6791
972.629666 58.301 -131.1992
979.677741 58.291 -130.7107
986.776890 58.279 -130.2122
993.927482 58.266 -129.7041
1001.129891 58.252 -129.1874
1008.384491 58.238 -128.6637
1015.691660 58.224 -128.1344
1023.051781 58.211 -127.6008
1030.465236 58.197 -127.0614
1037.932411 58.183 -126.5134
1045.453698 58.168 -125.9555
1053.029486 58.152 -125.3896
1060.660172 58.135 -124.8181
1068.346153 58.117 -124.2416
1076.087829 58.098 -123.6588
1083.885605 58.080 -123.0673
1091.739887 58.064 -122.4650
1099.651084 58.049 -121.8509
1107.619609 58.037 -121.2257
1115.645878 58.028 -120.5928
1123.730308 58.021 -119.9560
1131.873321 58.017 -119.3175
1140.075341 58.015 -118.6764
1148.336797 58.015 -118.0307
1156.658119 58.018 -117.3790
1165.039741 58.022 -116.7207
1173.482099 58.029 -116.0567
1181.985634 58.037 -115.3887
1190.550789 58.049 -114.7182
1199.178011 58.062 -114.0456
1207.867749 58.076 -113.3700
1216.620457 58.092 -112.6898
1225.436590 58.107 -112.0030
1234.316609 58.122 -111.3093
1243.260976 58.133 -110.6092
1252.270157 58.141 -109.9023
1261.344623 58.143 -109.1873
1270.484846 58.141 -108.4633
1279.691303 58.136 -107.7315
1288.964474 58.128 -106.9942
1298.304842 58.120 -106.2523
1307.712894 58.112 -105.5042
1317.189120 58.106 -104.7461
1326.734016 58.104 -103.9759
1336.348077 58.105 -103.1953
1346.031806 58.110 -102.4053
1355.785708 58.118 -101.6052
1365.610290 58.129 -100.7972
1375.506065 58.142 -99.9846
1385.473549 58.157 -99.1698
1395.513261 58.174 -98.3587
1405.625726 58.193 -97.5594
1415.811469 58.214 -96.7733
1426.071023 58.239 -95.9886
1436.404921 58.267 -95.1870
1446.813703 58.297 -94.3549
1457.297912 58.325 -93.4920
1467.858093 58.349 -92.6119
1478.494798 58.371 -91.7291
1489.208581 58.392 -90.8451
1500.000000 58.415 -89.9528
1510.869618 58.439 -89.0479
1521.818002 58.465 -88.1317
1532.845723 58.492 -87.2062
1543.953355 58.520 -86.2693
1555.141477 58.548 -85.3137
1566.410674 58.577 -84.3330
1577.761531 58.607 -83.3266
1589.194642 58.638 -82.2975
1600.710601 58.668 -81.2468
1612.310010 58.698 -80.1739
1623.993473 58.728 -79.0790
1635.761599 58.759 -77.9620
1647.615002 58.792 -76.8233
1659.554299 58.829 -75.6642
1671.580114 58.870 -74.4854
1683.693072 58.914 -73.2839
1695.893807 58.961 -72.0566
1708.182952 59.010 -70.8052
1720.561150 59.063 -69.5367
1733.029045 59.117 -68.2588
1745.587288 59.173 -66.9729
1758.236533 59.229 -65.6720
1770.977440 59.286 -64.3460
1783.810673 59.343 -62.9878
1796.736900 59.403 -61.5949
1809.756796 59.467 -60.1682
1822.871040 59.534 -58.7078
1836.080315 59.605 -57.2072
1849.385310 59.680 -55.6553
1862.786718 59.762 -54.0425
1876.285239 59.852 -52.3681
1889.881575 59.952 -50.6385
1903.576436 60.062 -48.8604
1917.370535 60.184 -47.0361
1931.264593 60.320 -45.1700
1945.259332 60.470 -43.2718
1959.355483 60.636 -41.3545
1973.553781 60.818 -39.4310
1987.854965 61.016 -37.5096
2002.259781 61.231 -35.5973
2016.768981 61.463 -33.7054
2031.383320 61.712 -31.8490
2046.103561 61.978 -30.0413
2060.930471 62.258 -28.2870
2075.864823 62.552 -26.5856
2090.907395 62.860 -24.9380
2106.058972 63.183 -23.3489
2121.320344 63.521 -21.8249
2136.692305 63.875 -20.3746
2152.175658 64.245 -19.0091
2167.771210 64.630 -17.7420
2183.479774 65.028 -16.5915
2199.302169 65.438 -15.5746
2215.239219 65.855 -14.7002
2231.291755 66.279 -13.9710
2247.460615 66.708 -13.3897
2263.746641 67.139 -12.9572
2280.150683 67.570 -12.6664
2296.673595 68.002 -12.5086
2313.316238 68.434 -12.4810
2330.079481 68.865 -12.5866
2346.964198 69.294 -12.8272
2363.971268 69.719 -13.2012
2381.101578 70.141 -13.7083
2398.356022 70.558 -14.3499
2415.735498 70.968 -15.1257
2433.240913 71.371 -16.0348
2450.873180 71.764 -17.0797
2468.633217 72.147 -18.2636
2486.521951 72.517 -19.5873
2504.540314 72.871 -21.0473
2522.689246 73.210 -22.6376
2540.969692 73.531 -24.3509
2559.382606 73.832 -26.1777
2577.928947 74.111 -28.1077
2596.609683 74.368 -30.1309
2615.425787 74.601 -32.2381
2634.378241 74.809 -34.4167
2653.468031 74.989 -36.6519
2672.696154 75.141 -38.9281
2692.063613 75.264 -41.2272
2711.571415 75.357 -43.5271
2731.220579 75.421 -45.8049
2751.012130 75.456 -48.0409
2770.947098 75.466 -50.2175
2791.026522 75.451 -52.3194
2811.251451 75.414 -54.3338
2831.622938 75.358 -56.2522
2852.142045 75.284 -58.0685
2872.809842 75.194 -59.7778
2893.627406 75.091 -61.3781
2914.595823 74.976 -62.8693
2935.716186 74.851 -64.2502
2956.989596 74.716 -65.5209
2978.417161 74.575 -66.6830
3000.000000 74.427 -67.7389
3021.739237 74.274 -68.6910
3043.636005 74.117 -69.5427
3065.691446 73.957 -70.2983
3087.906710 73.796 -70.9618
3110.282955 73.633 -71.5373
3132.821347 73.471 -72.0296
3155.523062 73.309 -72.4440
3178.389283 73.149 -72.7859
3201.421202 72.990 -73.0619
3224.620020 72.833 -73.2793
3247.986946 72.677 -73.4425
3271.523198 72.522 -73.5532
3295.230004 72.367 -73.6113
3319.108599 72.213 -73.6153
3343.160228 72.060 -73.5632
3367.386145 71.907 -73.4544
3391.787613 71.757 -73.2896
3416.365904 71.608 -73.0710
3441.122300 71.463 -72.8020
3466.058091 71.320 -72.4868
3491.174576 71.180 -72.1287
3516.473066 71.044 -71.7304
3541.954880 70.910 -71.2933
3567.621345 70.780 -70.8175
3593.473800 70.654 -70.3035
3619.513592 70.531 -69.7526
3645.742080 70.411 -69.1670
3672.160630 70.296 -68.5500
3698.770620 70.184 -67.9046
3725.573436 70.076 -67.2334
3752.570477 69.972 -66.5377
3779.763150 69.870 -65.8177
3807.152872 69.771 -65.0721
3834.741071 69.673 -64.2984
3862.529185 69.577 -63.4934
3890.518664 69.482 -62.6542
3918.710966 69.388 -61.7792
3947.107561 69.296 -60.8677
3975.709929 69.206 -59.9194
4004.519563 69.117 -58.9342
4033.537962 69.031 -57.9134
4062.766641 68.947 -56.8598
4092.207123 68.866 -55.7774
4121.860942 68.788 -54.6712
4151.729646 68.713 -53.5453
4181.814790 68.642 -52.4030
4212.117944 68.573 -51.2459
4242.640687 68.508 -50.0743
4273.384610 68.445 -48.8867
4304.351317 68.385 -47.6806
4335.542421 68.327 -46.4529
4366.959549 68.270 -45.2009
4398.604338 68.217 -43.9230
4430.478438 68.166 -42.6186
4462.583511 68.120 -41.2883
4494.921231 68.079 -39.9347
4527.493283 68.043 -38.5620
4560.301365 68.013 -37.1758
4593.347189 67.990 -35.7829
4626.632476 67.972 -34.3901
4660.158962 67.960 -33.0032
4693.928395 67.952 -31.6262
4727.942535 67.948 -30.2608
4762.203156 67.947 -28.9069
4796.712043 67.948 -27.5625
4831.470996 67.950 -26.2240
4866.481826 67.954 -24.8867
4901.746360 67.958 -23.5453
4937.266434 67.962 -22.1944
4973.043902 67.967 -20.8282
5009.080628 67.972 -19.4416
5045.378492 67.978 -18.0307
5081.939384 67.987 -16.5933
5118.765212 67.998 -15.1294
5155.857894 68.012 -13.6409
5193.219366 68.031 -12.1315
5230.851574 68.054 -10.6061
5268.756481 68.084 -9.0696
5306.936062 68.119 -7.5265
5345.392309 68.162 -5.9808
5384.127225 68.212 -4.4356
5423.142830 68.269 -2.8936
5462.441159 68.334 -1.3560
5502.024259 68.406 0.1768
5541.894195 68.484 1.7050
5582.053045 68.570 3.2284
5622.502902 68.662 4.7470
5663.245876 68.761 6.2605
5704.284090 68.868 7.7676
5745.619684 68.983 9.2648
5787.254813 69.107 10.7461
5829.191647 69.238 12.2046
5871.432373 69.377 13.6335
5913.979192 69.523 15.0269
5956.834323 69.676 16.3800
6000.000000 69.836 17.6892
6043.478473 70.001 18.9523
6087.272010 70.172 20.1682
6131.382892 70.350 21.3359
6175.813420 70.534 22.4541
6220.565910 70.724 23.5210
6265.642695 70.920 24.5332
6311.046124 71.121 25.4864
6356.778566 71.329 26.3763
6402.842404 71.541 27.2000
6449.240040 71.757 27.9579
6495.973891 71.976 28.6532
6543.046396 72.199 29.2897
6590.460007 72.426 29.8673
6638.217197 72.658 30.3799
6686.320456 72.897 30.8145
6734.772290 73.142 31.1532
6783.575226 73.392 31.3764
6832.731809 73.644 31.4681
6882.244600 73.896 31.4188
6932.116181 74.144 31.2264
6982.349153 74.387 30.8956
7032.946133 74.622 30.4337
7083.909760 74.849 29.8485
7135.242690 75.067 29.1474
7186.947600 75.277 28.3368
7239.027185 75.477 27.4228
7291.484160 75.667 26.4110
7344.321260 75.847 25.3071
7397.541239 76.015 24.1182
7451.146872 76.171 22.8530
7505.140954 76.312 21.5228
7559.526299 76.436 20.1413
7614.305743 76.543 18.7243
7669.482141 76.629 17.2893
7725.058371 76.693 15.8536
7781.037328 76.732 14.4327
7837.421932 76.746 13.0390
7894.215122 76.734 11.6803
7951.419859 76.695 10.3595
8009.039125 76.631 9.0754
8067.075924 76.543 7.8231
8125.533282 76.431 6.5953
8184.414245 76.299 5.3835
8243.721885 76.150 4.1775
8303.459292 75.985 2.9653
8363.629581 75.808 1.7320
8424.235888 75.621 0.4601
8485.281374 75.424 -0.8680
8546.769221 75.217 -2.2664
8608.702634 74.996 -3.7438
8671.084842 74.758 -5.3033
8733.919097 74.497 -6.9412
8797.208675 74.208 -8.6460
8860.956876 73.882 -10.3959
8925.167022 73.510 -12.1556
8989.842461 73.083 -13.8730
9054.986566 72.592 -15.4738
9120.602731 72.029 -16.8554
9186.694378 71.390 -17.8792
9253.264952 70.674 -18.3617
9320.317925 69.888 -18.0638
9387.856790 69.049 -16.6833
9455.885071 68.192 -13.8691
9524.406312 67.380 -9.3088
9593.424086 66.702 -2.9623
9662.941992 66.260 4.6070
9732.963653 66.108 12.1962
9803.492719 66.221 18.5571
9874.532869 66.503 23.0705
9946.087805 66.844 25.8099
10018.161257 67.162 27.2004
10090.756983 67.411 27.7266
10163.878768 67.575 27.8003
10237.530423 67.660 27.7270
10311.715789 67.678 27.7105
10386.438732 67.651 27.8695
10461.703149 67.597 28.2569
10537.512962 67.532 28.8811
10613.872125 67.471 29.7281
10690.784618 67.426 30.7794
10768.254450 67.407 32.0186
10846.285661 67.433 33.4166
10924.882318 67.519 34.8937
11004.048518 67.681 36.2807
11083.788390 67.915 37.3272
11164.106090 68.194 37.7911
11245.005805 68.478 37.5607
11326.491752 68.727 36.7034
11408.568180 68.918 35.4027
11491.239368 69.049 33.8481
11574.509626 69.125 32.1650
11658.383294 69.151 30.4192
11742.864745 69.132 28.6640
11827.958384 69.069 26.9668
11913.668646 68.970 25.3990
12000.000000 68.849 24.0133
12086.956947 68.720 22.8290
12174.544019 68.600 21.8301
12262.765784 68.501 20.9721
12351.626840 68.434 20.1898
12441.131819 68.403 19.4039
12531.285389 68.412 18.5271
12622.092249 68.456 17.4742
12713.557132 68.533 16.1722
12805.684808 68.636 14.5635
12898.480079 68.762 12.5970
12991.947783 68.904 10.2154
13086.092792 69.053 7.3506
13180.920015 69.197 3.9293
13276.434395 69.315 -0.1111
13372.640911 69.385 -4.8037
13469.544580 69.379 -10.1355
13567.150452 69.273 -16.0350
13665.463617 69.044 -22.3696
13764.489200 68.676 -28.9546
13864.232362 68.161 -35.5750
13964.698305 67.503 -42.0136
14065.892266 66.715 -48.0789
14167.819519 65.817 -53.6223
14270.485380 64.832 -58.5456
14373.895200 63.787 -62.7997
14478.054370 62.707 -66.3791
14582.968320 61.616 -69.3160
14688.642520 60.534 -71.6720
14795.082478 59.478 -73.5288
14902.293745 58.462 -74.9791
15010.281908 57.495 -76.1199
15119.052599 56.585 -77.0493
15228.611486 55.736 -77.8625
15338.964283 54.950 -78.6448
15450.116741 54.228 -79.4617
15562.074656 53.565 -80.3513
15674.843864 52.959 -81.3257
15788.430244 52.405 -82.3800
15902.839718 51.894 -83.5064
16018.078250 51.422 -84.7030
16134.151848 50.981 -85.9757
16251.066563 50.567 -87.3362
16368.828491 50.177 -88.7987
16487.443769 49.812 -90.3792
16606.918584 49.474 -92.0963
16727.259161 49.167 -93.9723
16848.471777 48.897 -96.0346
16970.562748 48.675 -98.3197
17093.538442 48.510 -100.8812
17217.405268 48.414 -103.7959
17342.169684 48.393 -107.1595
17467.838194 48.450 -111.0727
17594.417350 48.587 -115.6332
17721.913751 48.801 -120.9347
17850.334044 49.085 -127.0679
17979.684923 49.428 -134.1219
18109.973131 49.813 -142.1810
18241.205462 50.218 -151.3203
18373.388756 50.613 -161.5973
18506.529905 50.968 -173.0441
18640.635849 51.248 174.3397
18775.713581 51.417 160.5886
18911.770141 51.441 145.7676
19048.812624 51.293 129.9724
19186.848172 50.958 113.3272
19325.883983 50.434 95.9778
19465.927305 49.741 78.1708
19606.985439 48.923 60.5208
19749.065738 48.069 44.3705
19892.175609 47.324 31.7797
20036.322514 46.878 24.8417
