* Measurement data measured by REW V5.40 beta 98
* Source: Микрофон (HiBy Digital D1), MICROPHONE (Общая громкость), R, volume: 0,250
* Format: 256k Log Swept Sine, 1 sweep at -15,0 dBFS with no timing reference
* Dated: 03.10.2025 15:42:48
* REW Settings:
*  C-weighting compensation: Off
*  Target level: 75.0 dB
* Note: 
* Measurement: CNT-H
* Smoothing: 1/12 octave
* Frequency Step: 96 ppo
* Start Frequency: 0.36621094 Hz
*
* Freq(Hz) SPL(dB) Phase(degrees)
0.366211 44.164 -100.2154
0.368865 44.153 -99.8963
0.371538 44.135 -99.5945
0.374230 44.114 -99.3054
0.376942 44.090 -99.0250
0.379673 44.064 -98.7503
0.382424 44.037 -98.4795
0.385196 44.009 -98.2112
0.387987 43.981 -97.9449
0.390798 43.953 -97.6802
0.393630 43.924 -97.4169
0.396483 43.895 -97.1551
0.399356 43.865 -96.8946
0.402250 43.836 -96.6355
0.405165 43.806 -96.3780
0.408101 43.776 -96.1219
0.411058 43.746 -95.8676
0.414037 43.715 -95.6149
0.417037 43.685 -95.3639
0.420059 43.654 -95.1149
0.423103 43.623 -94.8678
0.426169 43.592 -94.6228
0.429257 43.560 -94.3798
0.432368 43.528 -94.1392
0.435501 43.496 -93.9008
0.438656 43.464 -93.6649
0.441835 43.432 -93.4315
0.445037 43.399 -93.2007
0.448262 43.366 -92.9727
0.451510 43.333 -92.7475
0.454782 43.299 -92.5253
0.458077 43.266 -92.3062
0.461397 43.232 -92.0904
0.464740 43.198 -91.8778
0.468108 43.163 -91.6688
0.471500 43.129 -91.4633
0.474917 43.094 -91.2616
0.478358 43.058 -91.0637
0.481825 43.023 -90.8699
0.485316 42.987 -90.6802
0.488833 42.952 -90.4948
0.492375 42.915 -90.3139
0.495943 42.879 -90.1375
0.499537 42.842 -89.9659
0.503157 42.805 -89.7992
0.506803 42.768 -89.6376
0.510475 42.730 -89.4812
0.514175 42.693 -89.3301
0.517900 42.655 -89.1846
0.521653 42.616 -89.0448
0.525434 42.578 -88.9108
0.529241 42.539 -88.7828
0.533076 42.500 -88.6610
0.536939 42.460 -88.5455
0.540830 42.420 -88.4365
0.544749 42.380 -88.3341
0.548696 42.340 -88.2384
0.552673 42.300 -88.1497
0.556677 42.259 -88.0679
0.560711 42.217 -87.9933
0.564774 42.176 -87.9260
0.568867 42.134 -87.8520
0.572989 42.092 -87.7793
0.577141 42.050 -87.7141
0.581324 42.007 -87.6563
0.585536 41.964 -87.6060
0.589779 41.921 -87.5632
0.594053 41.877 -87.5280
0.598358 41.833 -87.5003
0.602694 41.789 -87.4802
0.607061 41.744 -87.4674
0.611460 41.699 -87.4620
0.615891 41.654 -87.4639
0.620354 41.608 -87.4728
0.624849 41.562 -87.4886
0.629377 41.516 -87.5110
0.633938 41.470 -87.5399
0.638532 41.423 -87.5748
0.643159 41.375 -87.6154
0.647819 41.328 -87.6614
0.652514 41.280 -87.7122
0.657242 41.232 -87.7673
0.662005 41.183 -87.8263
0.666802 41.134 -87.8885
0.671634 41.085 -87.9531
0.676501 41.035 -88.0195
0.681403 40.985 -88.0869
0.686341 40.934 -88.1543
0.691314 40.883 -88.2208
0.696324 40.832 -88.2853
0.701370 40.780 -88.3466
0.706452 40.726 -88.4034
0.711571 40.672 -88.4541
0.716728 40.615 -88.4973
0.721921 40.555 -88.5316
0.727153 40.490 -88.5566
0.732422 40.418 -88.5732
0.737729 40.339 -88.5847
0.743075 40.252 -88.5970
0.748460 40.159 -88.6164
0.753883 40.059 -88.6485
0.759346 39.953 -88.6975
0.764849 39.843 -88.7666
0.770391 39.728 -89.1552
0.775974 39.608 -89.6486
0.781597 39.485 -90.1704
0.787261 39.357 -90.7218
0.792966 39.226 -91.3042
0.798712 39.091 -91.9186
0.804500 38.952 -92.5663
0.810329 38.809 -93.2484
0.816201 38.663 -93.9659
0.822116 38.514 -94.7201
0.828073 38.362 -95.5118
0.834074 38.206 -96.3421
0.840118 38.047 -97.2119
0.846206 37.886 -98.1221
0.852338 37.721 -99.0732
0.858514 37.554 -100.0660
0.864735 37.384 -101.1008
0.871001 37.212 -102.1778
0.877313 37.038 -103.2972
0.883670 36.862 -104.4587
0.890074 36.684 -105.6619
0.896524 36.504 -106.9062
0.903020 36.323 -108.1905
0.909564 36.140 -109.5135
0.916155 35.957 -110.8737
0.922794 35.772 -112.2691
0.929481 35.587 -113.6973
0.936216 35.402 -115.1559
0.943000 35.217 -116.6420
0.949834 35.031 -118.1524
0.956717 34.847 -119.6837
0.963649 34.663 -121.2322
0.970632 34.479 -122.8328
0.977666 34.298 -124.4631
0.984750 34.118 -126.0995
0.991886 33.940 -127.7380
0.999074 33.764 -129.3750
1.006314 33.591 -131.0065
1.013606 33.422 -132.6293
1.020951 33.256 -134.2400
1.028349 33.094 -135.8357
1.035801 32.936 -137.4140
1.043307 32.784 -138.9729
1.050867 32.638 -140.5108
1.058482 32.498 -142.0274
1.066152 32.367 -143.5229
1.073878 32.246 -144.9993
1.081660 32.138 -146.4601
1.089498 32.045 -147.9113
1.097393 31.969 -149.3613
1.105345 31.913 -150.8202
1.113355 31.873 -152.2980
1.121423 31.845 -153.8035
1.129549 31.826 -155.3426
1.137734 31.811 -156.9187
1.145979 31.799 -158.5330
1.154283 31.788 -160.1851
1.162647 31.777 -161.8732
1.171072 31.766 -163.5822
1.179558 31.753 -165.3124
1.188106 31.740 -167.0674
1.196715 31.726 -168.8420
1.205387 31.711 -170.6308
1.214122 31.695 -172.4276
1.222920 31.679 -174.2261
1.231782 31.661 -176.0198
1.240708 31.644 -177.8022
1.249699 31.625 -179.5666
1.258754 31.606 178.6932
1.267876 31.587 176.9832
1.277063 31.567 175.3091
1.286318 31.548 173.6760
1.295639 31.528 172.0885
1.305027 31.508 170.5505
1.314484 31.489 169.0654
1.324009 31.469 167.6360
1.333604 31.450 166.2644
1.343268 31.432 164.9521
1.353002 31.414 163.7002
1.362806 31.397 162.5090
1.372681 31.381 161.3184
1.382628 31.366 160.1587
1.392647 31.352 159.0574
1.402739 31.339 158.0129
1.412904 31.328 157.0229
1.423142 31.318 156.0840
1.433455 31.310 155.1919
1.443843 31.303 154.3401
1.454305 31.297 153.5206
1.464844 31.292 152.7231
1.475459 31.288 151.9369
1.486150 31.284 151.1516
1.496920 31.282 150.3598
1.507767 31.280 149.5568
1.518693 31.280 148.7407
1.529698 31.281 147.9111
1.540783 31.283 147.0692
1.551948 31.286 146.2169
1.563194 31.290 145.3562
1.574521 31.295 144.4125
1.585931 31.301 143.4393
1.597423 31.307 142.4648
1.608999 31.314 141.4914
1.620658 31.320 140.5216
1.632402 31.327 139.5579
1.644232 31.334 138.6024
1.656146 31.340 137.6573
1.668147 31.346 136.7245
1.680235 31.351 135.8058
1.692411 31.355 134.9028
1.704675 31.358 134.0167
1.717028 31.359 133.1487
1.729470 31.359 132.2996
1.742003 31.357 131.4697
1.754626 31.352 130.6589
1.767341 31.346 129.8593
1.780147 31.336 129.0161
1.793047 31.324 128.1852
1.806040 31.308 127.3615
1.819128 31.290 126.5369
1.832310 31.267 125.7012
1.845587 31.241 124.8429
1.858961 31.212 123.9514
1.872432 31.179 123.0190
1.886001 31.142 122.0412
1.899667 31.103 121.0163
1.913433 31.060 119.9450
1.927299 31.015 118.8296
1.941265 30.966 117.6732
1.955332 30.915 116.4798
1.969501 30.862 115.2361
1.983773 30.807 113.9099
1.998148 30.751 112.5601
2.012627 30.692 111.1918
2.027212 30.633 109.8097
2.041902 30.573 108.4185
2.056698 30.512 107.0229
2.071602 30.450 105.6267
2.086614 30.389 104.2336
2.101734 30.328 102.8463
2.116964 30.268 101.4661
2.132304 30.208 100.0930
2.147756 30.150 98.7245
2.163320 30.093 97.3550
2.178996 30.036 95.9300
2.194786 29.980 94.4708
2.210690 29.924 92.9701
2.226710 29.867 91.4111
2.242845 29.810 89.7803
2.259098 29.750 88.0694
2.275468 29.690 86.2745
2.291957 29.629 84.3960
2.308566 29.567 82.4374
2.325295 29.505 80.4045
2.342145 29.444 78.3051
2.359117 29.384 76.1479
2.376212 29.326 73.9047
2.393431 29.271 71.5975
2.410775 29.220 69.2624
2.428244 29.173 66.9092
2.445840 29.131 64.5469
2.463564 29.095 62.1826
2.481416 29.066 59.8211
2.499397 29.046 57.4642
2.517509 29.033 55.1093
2.535752 29.031 52.7487
2.554127 29.038 50.3697
2.572635 29.056 47.9296
2.591277 29.083 45.3911
2.610055 29.121 42.7910
2.628968 29.169 40.1266
2.648019 29.226 37.4033
2.667208 29.293 34.6325
2.686535 29.367 31.8303
2.706003 29.450 29.0151
2.725612 29.539 26.2059
2.745363 29.636 23.4212
2.765257 29.738 20.6777
2.785295 29.846 17.9349
2.805478 29.959 15.2560
2.825808 30.076 12.6501
2.846285 30.197 10.1204
2.866910 30.321 7.6651
2.887685 30.448 5.2781
2.908611 30.579 2.9487
2.929688 30.715 0.6631
2.950917 30.855 -1.5931
2.972301 31.000 -3.8451
2.993839 31.152 -6.1174
3.015534 31.309 -8.3752
3.037386 31.472 -10.6129
3.059396 31.639 -12.8219
3.081565 31.810 -14.9927
3.103896 31.985 -17.1160
3.126388 32.161 -19.1840
3.149043 32.338 -21.1901
3.171862 32.515 -23.1416
3.194847 32.691 -25.0585
3.217998 32.864 -26.9091
3.241317 33.034 -28.6979
3.264805 33.201 -30.4324
3.288463 33.365 -32.1232
3.312293 33.524 -33.7824
3.336295 33.681 -35.4211
3.360471 33.836 -37.0461
3.384822 33.988 -38.6938
3.409350 34.138 -40.3385
3.434056 34.286 -41.9652
3.458940 34.431 -43.5679
3.484005 34.574 -45.1396
3.509252 34.714 -46.6746
3.534681 34.851 -48.1675
3.560295 34.985 -49.6147
3.586094 35.116 -51.0488
3.612081 35.242 -52.4474
3.638255 35.365 -53.8059
3.664620 35.484 -55.1321
3.691175 35.598 -56.4353
3.717923 35.708 -57.7236
3.744864 35.814 -59.0022
3.772001 35.916 -60.2819
3.799335 36.013 -61.5853
3.826866 36.107 -62.8744
3.854597 36.196 -64.1435
3.882529 36.282 -65.3867
3.910664 36.365 -66.5986
3.939002 36.443 -67.7746
3.967546 36.518 -68.9139
3.996296 36.589 -70.0442
4.025255 36.656 -71.1399
4.054423 36.719 -72.2069
4.083804 36.778 -73.2515
4.113396 36.833 -74.2786
4.143204 36.884 -75.2905
4.173227 36.930 -76.2946
4.203468 36.973 -77.3055
4.233928 37.012 -78.2949
4.264609 37.048 -79.2581
4.295512 37.080 -80.1908
4.326639 37.109 -81.0891
4.357992 37.136 -81.9510
4.389572 37.159 -82.8004
4.421380 37.179 -83.6240
4.453419 37.196 -84.4172
4.485691 37.210 -85.1832
4.518196 37.220 -85.9241
4.550936 37.227 -86.6407
4.583914 37.232 -87.3490
4.617131 37.234 -88.0448
4.650589 37.234 -88.7117
4.684289 37.232 -89.3473
4.718233 37.229 -89.9491
4.752424 37.224 -90.5158
4.786862 37.217 -91.0646
4.821549 37.209 -91.5902
4.856488 37.200 -92.0830
4.891680 37.189 -92.5446
4.927127 37.176 -92.9767
4.962831 37.163 -93.3806
4.998794 37.149 -93.7803
5.035017 37.134 -94.1557
5.071503 37.119 -94.5043
5.108253 37.104 -94.8259
5.145270 37.089 -95.1200
5.182555 37.074 -95.3969
5.220110 37.059 -95.6595
5.257937 37.044 -95.8952
5.296038 37.029 -96.1052
5.334415 37.014 -96.2911
5.373071 36.998 -96.4586
5.412006 36.983 -96.6226
5.451224 36.967 -96.7671
5.490725 36.951 -96.8927
5.530514 36.934 -96.9994
5.570590 36.918 -97.0891
5.610957 36.901 -97.1774
5.651616 36.883 -97.2444
5.692570 36.865 -97.2890
5.733821 36.846 -97.3102
5.775370 36.826 -97.3119
5.817221 36.804 -97.3051
5.859375 36.781 -97.2727
5.901834 36.756 -97.2142
5.944602 36.730 -97.1283
5.987679 36.702 -97.0234
6.031068 36.673 -96.8965
6.074771 36.643 -96.7330
6.118792 36.612 -96.5289
6.163131 36.581 -96.2803
6.207792 36.550 -95.9991
6.252776 36.518 -95.6686
6.298086 36.487 -95.2861
6.343725 36.456 -94.8502
6.389694 36.428 -94.3682
6.435996 36.402 -93.8386
6.482634 36.382 -93.2521
6.529610 36.367 -92.6075
6.576926 36.360 -91.9078
6.624585 36.362 -91.1622
6.672590 36.372 -90.3610
6.720942 36.392 -89.5096
6.769645 36.422 -88.6182
6.818700 36.465 -87.7100
6.868111 36.521 -86.7824
6.917881 36.591 -85.8456
6.968010 36.676 -84.9091
7.018504 36.777 -83.9952
7.069362 36.893 -83.0989
7.120590 37.023 -82.2324
7.172189 37.166 -81.4113
7.224161 37.320 -80.6596
7.276511 37.485 -79.9768
7.329239 37.658 -79.3704
7.382350 37.840 -78.8477
7.435845 38.029 -78.4152
7.489729 38.223 -78.0656
7.544002 38.420 -77.8004
7.598669 38.618 -77.6282
7.653732 38.815 -77.5475
7.709194 39.009 -77.5521
7.765058 39.199 -77.6383
7.821327 39.385 -77.8114
7.878004 39.565 -78.0525
7.935091 39.738 -78.3538
7.992592 39.903 -78.7134
8.050510 40.060 -79.1271
8.108847 40.206 -79.5838
8.167607 40.342 -80.0775
8.226793 40.468 -80.6096
8.286408 40.584 -81.1594
8.346454 40.689 -81.7166
8.406936 40.783 -82.2789
8.467856 40.867 -82.8368
8.529218 40.940 -83.3813
8.591024 41.003 -83.9094
8.653278 41.057 -84.4135
8.715983 41.103 -84.8784
8.779143 41.142 -85.2972
8.842760 41.174 -85.6696
8.906839 41.201 -85.9840
8.971381 41.224 -86.2380
9.036392 41.245 -86.4355
9.101873 41.266 -86.5654
9.167829 41.288 -86.6262
9.234263 41.314 -86.6273
9.301178 41.344 -86.5638
9.368578 41.381 -86.4431
9.436467 41.425 -86.2815
9.504847 41.479 -86.0806
9.573723 41.544 -85.8507
9.643099 41.619 -85.6087
9.712976 41.704 -85.3608
9.783361 41.797 -85.1237
9.854255 41.899 -84.9152
9.925663 42.007 -84.7410
9.997588 42.120 -84.6093
10.070035 42.235 -84.5476
10.143007 42.350 -84.5421
10.216507 42.463 -84.5967
10.290540 42.572 -84.7130
10.365109 42.676 -84.8893
10.440219 42.778 -85.1211
10.515873 42.876 -85.4014
10.592076 42.973 -85.7229
10.668830 43.068 -86.0775
10.746141 43.160 -86.4559
10.824012 43.245 -86.8464
10.902447 43.320 -87.2360
10.981451 43.382 -87.6122
11.061027 43.430 -87.9868
11.141180 43.465 -88.3335
11.221913 43.491 -88.6346
11.303232 43.512 -88.8799
11.385140 43.532 -89.0613
11.467641 43.555 -89.1739
11.550741 43.583 -89.2166
11.634442 43.617 -89.1907
11.718750 43.660 -89.1005
11.803669 43.711 -88.9535
11.889203 43.771 -88.7617
11.975357 43.839 -88.5413
12.062136 43.915 -88.3287
12.149543 43.999 -88.1313
12.237583 44.092 -87.9596
12.326262 44.196 -87.8318
12.415583 44.311 -87.7645
12.505552 44.438 -87.7705
12.596172 44.575 -87.8577
12.687449 44.716 -88.0298
12.779387 44.856 -88.2869
12.871992 44.990 -88.6252
12.965268 45.113 -89.0363
13.059220 45.222 -89.5214
13.153852 45.316 -90.0588
13.249170 45.392 -90.6228
13.345179 45.452 -91.1937
13.441884 45.495 -91.7489
13.539289 45.521 -92.2646
13.637401 45.533 -92.7177
13.736223 45.530 -93.0857
13.835761 45.512 -93.3469
13.936021 45.483 -93.4816
14.037007 45.446 -93.4823
14.138725 45.406 -93.3458
14.241180 45.372 -93.0584
14.344377 45.351 -92.6266
14.448323 45.350 -92.0672
14.553021 45.372 -91.4073
14.658478 45.421 -90.6824
14.764700 45.497 -89.9330
14.871691 45.598 -89.2025
14.979457 45.721 -88.5337
15.088005 45.864 -87.9778
15.197339 46.020 -87.5524
15.307465 46.186 -87.2727
15.418389 46.355 -87.1479
15.530117 46.523 -87.1764
15.642655 46.683 -87.3477
15.756008 46.830 -87.6445
15.870182 46.960 -88.0452
15.985184 47.070 -88.5235
16.101019 47.161 -89.0635
16.217694 47.232 -89.6260
16.335214 47.284 -90.1811
16.453586 47.318 -90.7019
16.572815 47.336 -91.1642
16.692909 47.340 -91.5483
16.813872 47.333 -91.8390
16.935713 47.318 -92.0268
17.058436 47.302 -92.1154
17.182048 47.289 -92.1106
17.306556 47.285 -92.0173
17.431967 47.293 -91.8536
17.558286 47.314 -91.6431
17.685521 47.351 -91.4119
17.813677 47.401 -91.1869
17.942762 47.463 -90.9935
18.072783 47.537 -90.8596
18.203746 47.619 -90.8002
18.335658 47.707 -90.8209
18.468526 47.798 -90.9257
18.602356 47.887 -91.1132
18.737156 47.972 -91.3769
18.872934 48.050 -91.7062
19.009695 48.120 -92.0884
19.147447 48.182 -92.5173
19.286197 48.235 -92.9663
19.425953 48.279 -93.4189
19.566721 48.316 -93.8593
19.708510 48.346 -94.2733
19.851326 48.370 -94.6498
19.995177 48.392 -94.9811
20.140070 48.416 -95.2727
20.286013 48.444 -95.5182
20.433014 48.479 -95.7249
20.581080 48.523 -95.9056
20.730219 48.577 -96.0776
20.880439 48.641 -96.2615
21.031747 48.715 -96.4799
21.184152 48.797 -96.7575
21.337661 48.885 -97.1022
21.492282 48.977 -97.5225
21.648024 49.067 -98.0192
21.804895 49.152 -98.5844
21.962902 49.229 -99.2019
22.122054 49.293 -99.8549
22.282360 49.344 -100.5093
22.443827 49.379 -101.1302
22.606464 49.397 -101.6835
22.770280 49.399 -102.1366
22.935283 49.388 -102.4617
23.101481 49.370 -102.6440
23.268884 49.354 -102.6721
23.437500 49.347 -102.5455
23.607338 49.356 -102.2792
23.778406 49.386 -101.8994
23.950714 49.438 -101.4399
24.124271 49.514 -100.9427
24.299086 49.611 -100.4404
24.475167 49.726 -99.9615
24.652524 49.855 -99.5283
24.831166 49.993 -99.1548
25.011103 50.136 -98.8483
25.192344 50.282 -98.6160
25.374898 50.428 -98.4500
25.558775 50.573 -98.3470
25.743984 50.715 -98.3037
25.930536 50.852 -98.3167
26.118439 50.983 -98.3843
26.307704 51.106 -98.5005
26.498341 51.219 -98.6567
26.690359 51.322 -98.8439
26.883768 51.412 -99.0511
27.078579 51.490 -99.2688
27.274801 51.556 -99.4864
27.472446 51.610 -99.6898
27.671522 51.655 -99.8708
27.872042 51.691 -100.0244
28.074014 51.721 -100.1498
28.277450 51.745 -100.2484
28.482360 51.765 -100.3176
28.688755 51.781 -100.3590
28.896645 51.796 -100.3746
29.106042 51.810 -100.3691
29.316957 51.824 -100.3473
29.529400 51.841 -100.3141
29.743382 51.862 -100.2803
29.958915 51.889 -100.2594
30.176009 51.923 -100.2689
30.394677 51.963 -100.3196
30.614929 52.009 -100.4190
30.836778 52.058 -100.5697
31.060234 52.109 -100.7690
31.285309 52.161 -101.0110
31.512015 52.215 -101.2830
31.740364 52.270 -101.5797
31.970368 52.331 -101.9023
32.202039 52.396 -102.2625
32.435388 52.468 -102.6704
32.670428 52.542 -103.1367
32.907171 52.617 -103.6638
33.145630 52.685 -104.2412
33.385817 52.742 -104.8383
33.627745 52.787 -105.4088
33.871425 52.819 -105.9005
34.116871 52.845 -106.2675
34.364096 52.871 -106.4805
34.613113 52.910 -106.5382
34.863934 52.968 -106.4746
35.116572 53.051 -106.3532
35.371041 53.158 -106.2476
35.627354 53.283 -106.2190
35.885525 53.414 -106.3038
36.145566 53.541 -106.5059
36.407492 53.655 -106.7947
36.671316 53.752 -107.1193
36.937051 53.830 -107.4265
37.204712 53.896 -107.6733
37.474313 53.953 -107.8365
37.745867 54.009 -107.9152
38.019389 54.067 -107.9280
38.294893 54.130 -107.9074
38.572394 54.197 -107.8799
38.851905 54.267 -107.8702
39.133442 54.336 -107.8953
39.417019 54.402 -107.9623
39.702651 54.463 -108.0706
39.990353 54.517 -108.2148
40.280140 54.564 -108.3888
40.572026 54.605 -108.5760
40.866028 54.640 -108.7610
41.162160 54.671 -108.9294
41.460438 54.701 -109.0708
41.760877 54.734 -109.1816
42.063494 54.773 -109.2681
42.368303 54.821 -109.3454
42.675322 54.878 -109.4290
42.984565 54.946 -109.5365
43.296048 55.022 -109.6842
43.609789 55.102 -109.8749
43.925804 55.185 -110.1061
44.244108 55.267 -110.3691
44.564719 55.347 -110.6489
44.887654 55.426 -110.9298
45.212928 55.503 -111.2006
45.540560 55.579 -111.4532
45.870565 55.657 -111.6851
46.202962 55.736 -111.8995
46.537768 55.817 -112.1025
46.875000 55.900 -112.3027
47.214676 55.985 -112.5126
47.556813 56.073 -112.7422
47.901429 56.162 -112.9989
48.248542 56.249 -113.2859
48.598171 56.330 -113.5958
48.950334 56.404 -113.9119
49.305048 56.468 -114.2162
49.662333 56.524 -114.4946
50.022206 56.573 -114.7477
50.384688 56.618 -114.9916
50.749796 56.660 -115.2423
51.117550 56.698 -115.5131
51.487969 56.730 -115.8021
51.861072 56.757 -116.0920
52.236879 56.778 -116.3596
52.615409 56.797 -116.5856
52.996681 56.816 -116.7626
53.380717 56.839 -116.8969
53.767536 56.868 -116.9990
54.157158 56.903 -117.0829
54.549603 56.946 -117.1592
54.944892 56.994 -117.2339
55.343045 57.049 -117.3169
55.744084 57.112 -117.4201
56.148028 57.182 -117.5603
56.554900 57.258 -117.7546
56.964720 57.336 -118.0139
57.377510 57.413 -118.3387
57.793291 57.482 -118.7151
58.212085 57.542 -119.1204
58.633914 57.594 -119.5264
59.058799 57.640 -119.9084
59.486764 57.685 -120.2546
59.917829 57.732 -120.5663
60.352019 57.785 -120.8593
60.789354 57.841 -121.1500
61.229859 57.899 -121.4526
61.673556 57.956 -121.7715
62.120468 58.014 -122.1021
62.570618 58.071 -122.4379
63.024031 58.130 -122.7757
63.480729 58.191 -123.1155
63.940736 58.253 -123.4582
64.404077 58.314 -123.8074
64.870776 58.373 -124.1601
65.340856 58.429 -124.5140
65.814343 58.482 -124.8666
66.291261 58.533 -125.2139
66.771635 58.583 -125.5505
67.255489 58.635 -125.8769
67.742850 58.690 -126.1996
68.233743 58.747 -126.5256
68.728193 58.803 -126.8589
69.226226 58.855 -127.1974
69.727867 58.904 -127.5358
70.233144 58.947 -127.8726
70.742083 58.987 -128.2103
71.254709 59.024 -128.5508
71.771050 59.058 -128.8933
72.291132 59.091 -129.2335
72.814984 59.126 -129.5692
73.342631 59.165 -129.9067
73.874102 59.208 -130.2509
74.409424 59.255 -130.6062
74.948626 59.305 -130.9799
75.491734 59.356 -131.3767
76.038779 59.406 -131.7926
76.589787 59.454 -132.2239
77.144788 59.499 -132.6741
77.703811 59.542 -133.1492
78.266885 59.577 -133.6409
78.834039 59.605 -134.1253
79.405303 59.627 -134.5691
79.980706 59.647 -134.9514
80.560280 59.672 -135.2830
81.144053 59.704 -135.5919
81.732056 59.743 -135.9045
82.324320 59.785 -136.2358
82.920876 59.829 -136.5852
83.521755 59.872 -136.9465
84.126988 59.914 -137.3157
84.736607 59.953 -137.6870
85.350643 59.989 -138.0527
85.969129 60.022 -138.4101
86.592097 60.052 -138.7646
87.219579 60.080 -139.1147
87.851608 60.106 -139.4658
88.488217 60.131 -139.8284
89.129439 60.155 -140.2063
89.775308 60.176 -140.6031
90.425856 60.196 -141.0194
91.081119 60.213 -141.4504
91.741131 60.229 -141.8855
92.405925 60.243 -142.3225
93.075536 60.258 -142.7556
93.750000 60.273 -143.1783
94.429351 60.290 -143.5946
95.113625 60.308 -144.0034
95.802858 60.327 -144.4044
96.497085 60.347 -144.7907
97.196342 60.368 -145.1676
97.900667 60.390 -145.5430
98.610096 60.411 -145.9215
99.324665 60.431 -146.3021
100.044413 60.448 -146.6777
100.769376 60.462 -147.0375
101.499592 60.472 -147.3759
102.235100 60.479 -147.6945
102.975938 60.484 -148.0019
103.722144 60.487 -148.3010
104.473757 60.489 -148.6068
105.230817 60.492 -148.9280
105.993363 60.497 -149.2788
106.761435 60.504 -149.6773
107.535072 60.514 -150.1223
108.314315 60.523 -150.6029
109.099206 60.531 -151.0970
109.889783 60.539 -151.5730
110.686090 60.547 -152.0231
111.488167 60.555 -152.4418
112.296056 60.564 -152.8351
113.109800 60.573 -153.2169
113.929440 60.582 -153.6025
114.755020 60.590 -153.9995
115.586582 60.596 -154.4076
116.424170 60.599 -154.8247
117.267827 60.597 -155.2422
118.117598 60.589 -155.6469
118.973527 60.577 -156.0308
119.835658 60.562 -156.4008
120.704037 60.547 -156.7619
121.578708 60.533 -157.1218
122.459718 60.521 -157.4829
123.347111 60.511 -157.8414
124.240935 60.502 -158.1957
125.141236 60.496 -158.5521
126.048061 60.489 -158.9170
126.961458 60.482 -159.2703
127.881473 60.474 -159.6237
128.808154 60.462 -159.9684
129.741551 60.449 -160.3026
130.681712 60.433 -160.6281
131.628686 60.416 -160.9485
132.582521 60.399 -161.2678
133.543269 60.382 -161.5868
134.510979 60.365 -161.9055
135.485701 60.348 -162.2194
136.467486 60.331 -162.5237
137.456386 60.314 -162.8188
138.452451 60.296 -163.1063
139.455735 60.278 -163.3893
140.466288 60.258 -163.6693
141.484165 60.236 -163.9492
142.509418 60.213 -164.2296
143.542100 60.188 -164.5094
144.582265 60.163 -164.7845
145.629968 60.137 -165.0547
146.685262 60.111 -165.3329
147.748204 60.085 -165.6156
148.818849 60.060 -165.8978
149.897251 60.035 -166.1809
150.983469 60.011 -166.4497
152.077557 59.989 -166.7051
153.179574 59.970 -166.9380
154.289576 59.953 -167.1505
155.407622 59.938 -167.3504
156.533770 59.923 -167.5402
157.668078 59.908 -167.7348
158.810606 59.892 -167.9406
159.961413 59.873 -168.1633
161.120559 59.852 -168.3886
162.288105 59.829 -168.6269
163.464112 59.804 -168.8570
164.648640 59.778 -169.0663
165.841752 59.751 -169.2545
167.043510 59.723 -169.4371
168.253976 59.694 -169.6138
169.473213 59.661 -169.7896
170.701286 59.626 -169.9651
171.938258 59.588 -170.1421
173.184194 59.547 -170.3058
174.439158 59.504 -170.4681
175.703216 59.458 -170.6211
176.976434 59.410 -170.7642
178.258878 59.361 -170.9012
179.550615 59.314 -171.0391
180.851713 59.270 -171.1854
182.162239 59.230 -171.3367
183.482262 59.194 -171.4852
184.811850 59.163 -171.6237
186.151073 59.138 -171.7357
187.500000 59.117 -171.8409
188.858702 59.099 -171.9434
190.227250 59.082 -172.0496
191.605715 59.066 -172.1653
192.994169 59.049 -172.2841
194.392685 59.033 -172.4092
195.801334 59.017 -172.5206
197.220191 59.001 -172.6272
198.649330 58.982 -172.7104
200.088825 58.960 -172.7784
201.538751 58.934 -172.8422
202.999184 58.903 -172.9046
204.470200 58.869 -172.9664
205.951875 58.833 -173.0354
207.444287 58.795 -173.1121
208.947514 58.757 -173.1782
210.461634 58.720 -173.2402
211.986726 58.684 -173.2937
213.522869 58.649 -173.3484
215.070144 58.613 -173.4012
216.628631 58.577 -173.4614
218.198411 58.541 -173.5273
219.779567 58.504 -173.5941
221.372180 58.468 -173.6604
222.976334 58.432 -173.7263
224.592112 58.397 -173.7831
226.219600 58.362 -173.8250
227.858880 58.326 -173.8599
229.510039 58.290 -173.8770
231.173164 58.254 -173.8839
232.848340 58.217 -173.8853
234.535655 58.180 -173.8938
236.235197 58.146 -173.9004
237.947054 58.115 -173.9015
239.671317 58.085 -173.9019
241.408074 58.055 -173.8854
243.157416 58.024 -173.8608
244.919435 57.990 -173.8303
246.694223 57.954 -173.8043
248.481871 57.916 -173.7863
250.282473 57.878 -173.7703
252.096123 57.840 -173.7595
253.922915 57.802 -173.7507
255.762945 57.764 -173.7418
257.616309 57.724 -173.7310
259.483103 57.681 -173.7200
261.363424 57.635 -173.6906
263.257372 57.587 -173.6489
265.165043 57.538 -173.5925
267.086538 57.487 -173.5204
269.021957 57.435 -173.4337
270.971401 57.382 -173.3309
272.934972 57.328 -173.2173
274.912771 57.274 -173.0910
276.904902 57.219 -172.9323
278.911469 57.164 -172.7485
280.932577 57.109 -172.5441
282.968330 57.054 -172.3059
285.018835 56.998 -172.0420
287.084199 56.943 -171.7444
289.164530 56.888 -171.4111
291.259935 56.837 -171.0360
293.370525 56.790 -170.6001
295.496408 56.749 -170.1073
297.637697 56.718 -169.5604
299.794503 56.696 -168.9819
301.966937 56.685 -168.4005
304.155114 56.686 -167.8278
306.359147 56.698 -167.2958
308.579152 56.719 -166.8169
310.815244 56.747 -166.4091
313.067539 56.779 -166.0699
315.336156 56.812 -165.8022
317.621211 56.843 -165.6044
319.922826 56.872 -165.4488
322.241118 56.898 -165.3296
324.576210 56.919 -165.2292
326.928223 56.938 -165.1432
329.297280 56.953 -165.0703
331.683504 56.964 -165.0093
334.087019 56.971 -164.9556
336.507952 56.975 -164.8958
338.946427 56.975 -164.8313
341.402572 56.974 -164.7563
343.876516 56.971 -164.6718
346.368387 56.968 -164.5851
348.878315 56.964 -164.5004
351.406431 56.960 -164.4341
353.952867 56.956 -164.3632
356.517756 56.952 -164.2997
359.101230 56.947 -164.2394
361.703426 56.942 -164.1748
364.324478 56.936 -164.0985
366.964523 56.930 -164.0184
369.623699 56.924 -163.9357
372.302145 56.917 -163.8464
375.000000 56.910 -163.7510
377.717405 56.900 -163.6618
380.454501 56.889 -163.5707
383.211431 56.875 -163.4664
385.988339 56.860 -163.3546
388.785369 56.846 -163.2396
391.602668 56.831 -163.1245
394.440383 56.818 -163.0139
397.298660 56.805 -162.9117
400.177650 56.792 -162.8121
403.077502 56.777 -162.7132
405.998368 56.761 -162.6109
408.940400 56.743 -162.4966
411.903750 56.725 -162.3766
414.888575 56.707 -162.2429
417.895028 56.689 -162.1041
420.923268 56.671 -161.9613
423.973452 56.652 -161.8122
427.045738 56.634 -161.6720
430.140287 56.615 -161.5208
433.257261 56.596 -161.3629
436.396822 56.578 -161.1946
439.559133 56.560 -161.0154
442.744360 56.544 -160.8266
445.952668 56.529 -160.6281
449.184225 56.516 -160.4371
452.439199 56.504 -160.2287
455.717760 56.492 -160.0189
459.020079 56.480 -159.8058
462.346327 56.467 -159.5911
465.696680 56.454 -159.3724
469.071310 56.441 -159.1633
472.470394 56.427 -158.9425
475.894109 56.414 -158.7368
479.342634 56.400 -158.5295
482.816148 56.387 -158.3256
486.314833 56.374 -158.1145
489.838871 56.361 -157.8966
493.388445 56.348 -157.6685
496.963741 56.336 -157.4453
500.564945 56.324 -157.2090
504.192245 56.313 -156.9751
507.845830 56.301 -156.7459
511.525890 56.288 -156.5172
515.232618 56.276 -156.2889
518.966206 56.264 -156.0663
522.726849 56.254 -155.8336
526.514743 56.244 -155.6068
530.330086 56.234 -155.3779
534.173076 56.223 -155.1438
538.043915 56.213 -154.9014
541.942803 56.203 -154.6509
545.869944 56.194 -154.3977
549.825542 56.187 -154.1434
553.809805 56.181 -153.8836
557.822939 56.176 -153.6240
561.865154 56.172 -153.3544
565.936660 56.167 -153.1043
570.037671 56.162 -152.8436
574.168399 56.156 -152.5845
578.329060 56.151 -152.3267
582.519870 56.145 -152.0702
586.741049 56.139 -151.8080
590.992817 56.133 -151.5508
595.275394 56.126 -151.2957
599.589005 56.120 -151.0410
603.933874 56.113 -150.7838
608.310228 56.107 -150.5203
612.718295 56.101 -150.2407
617.158304 56.097 -149.9631
621.630488 56.094 -149.6877
626.135079 56.091 -149.4015
630.672311 56.089 -149.1193
635.242423 56.086 -148.8366
639.845651 56.083 -148.5439
644.482237 56.080 -148.2542
649.152421 56.078 -147.9608
653.856447 56.078 -147.6638
658.594560 56.079 -147.3660
663.367008 56.080 -147.0870
668.174039 56.082 -146.8153
673.015903 56.084 -146.5454
677.892854 56.084 -146.2823
682.805145 56.084 -146.0070
687.753032 56.082 -145.7192
692.736774 56.080 -145.4303
697.756631 56.079 -145.1302
702.812863 56.078 -144.8221
707.905735 56.077 -144.5186
713.035511 56.077 -144.2199
718.202461 56.077 -143.9133
723.406852 56.075 -143.6046
728.648956 56.073 -143.2946
733.929047 56.070 -142.9863
739.247399 56.067 -142.6753
744.604290 56.065 -142.3644
750.000000 56.063 -142.0625
755.434809 56.062 -141.7510
760.909001 56.063 -141.4413
766.422861 56.064 -141.1279
771.976677 56.065 -140.8163
777.570739 56.066 -140.5059
783.205337 56.067 -140.1962
788.880766 56.067 -139.8871
794.597321 56.069 -139.5713
800.355301 56.070 -139.2581
806.155005 56.072 -138.9351
811.996736 56.074 -138.6221
817.880799 56.075 -138.3041
823.807501 56.075 -137.9855
829.777150 56.073 -137.6657
835.790057 56.070 -137.3375
841.846536 56.068 -137.0142
847.946903 56.065 -136.6710
854.091476 56.063 -136.3310
860.280575 56.061 -135.9991
866.514523 56.057 -135.6632
872.793644 56.053 -135.3217
879.118267 56.049 -134.9756
885.488720 56.043 -134.6285
891.905336 56.037 -134.2743
898.368450 56.031 -133.9022
904.878398 56.024 -133.5308
911.435520 56.016 -133.1555
918.040157 56.007 -132.7794
924.692655 55.998 -132.3906
931.393359 55.988 -132.0093
938.142619 55.978 -131.6274
944.940787 55.967 -131.2276
951.788218 55.957 -130.8315
958.685268 55.947 -130.4228
965.632296 55.937 -130.0046
972.629666 55.926 -129.5799
979.677741 55.915 -129.1633
986.776890 55.903 -128.7405
993.927482 55.890 -128.3191
1001.129891 55.876 -127.8782
1008.384491 55.863 -127.4396
1015.691660 55.850 -126.9851
1023.051781 55.838 -126.5229
1030.465236 55.826 -126.0464
1037.932411 55.812 -125.5677
1045.453698 55.798 -125.0626
1053.029486 55.782 -124.5464
1060.660172 55.765 -124.0234
1068.346153 55.748 -123.4899
1076.087829 55.731 -122.9636
1083.885605 55.715 -122.4256
1091.739887 55.702 -121.8983
1099.651084 55.691 -121.3649
1107.619609 55.682 -120.8216
1115.645878 55.676 -120.2728
1123.730308 55.672 -119.7179
1131.873321 55.670 -119.1439
1140.075341 55.668 -118.5713
1148.336797 55.669 -117.9870
1156.658119 55.671 -117.3975
1165.039741 55.676 -116.7998
1173.482099 55.682 -116.2117
1181.985634 55.691 -115.6006
1190.550789 55.702 -114.9983
1199.178011 55.718 -114.4059
1207.867749 55.736 -113.7980
1216.620457 55.756 -113.2106
1225.436590 55.775 -112.6049
1234.316609 55.792 -111.9966
1243.260976 55.806 -111.3761
1252.270157 55.815 -110.7536
1261.344623 55.819 -110.1193
1270.484846 55.818 -109.4700
1279.691303 55.813 -108.8330
1288.964474 55.806 -108.1842
1298.304842 55.799 -107.5375
1307.712894 55.792 -106.8934
1317.189120 55.787 -106.2274
1326.734016 55.786 -105.5574
1336.348077 55.790 -104.8751
1346.031806 55.799 -104.1897
1355.785708 55.814 -103.5125
1365.610290 55.832 -102.8365
1375.506065 55.854 -102.1705
1385.473549 55.877 -101.4923
1395.513261 55.900 -100.8157
1405.625726 55.923 -100.1274
1415.811469 55.947 -99.4271
1426.071023 55.970 -98.7198
1436.404921 55.994 -97.9996
1446.813703 56.019 -97.2819
1457.297912 56.045 -96.5666
1467.858093 56.071 -95.8505
1478.494798 56.098 -95.1353
1489.208581 56.125 -94.4075
1500.000000 56.154 -93.6830
1510.869618 56.182 -92.9422
1521.818002 56.212 -92.1953
1532.845723 56.241 -91.4369
1543.953355 56.270 -90.6688
1555.141477 56.300 -89.8934
1566.410674 56.330 -89.1063
1577.761531 56.361 -88.3056
1589.194642 56.392 -87.4965
1600.710601 56.423 -86.6724
1612.310010 56.452 -85.8295
1623.993473 56.480 -84.9744
1635.761599 56.508 -84.0870
1647.615002 56.537 -83.1829
1659.554299 56.567 -82.2672
1671.580114 56.599 -81.3500
1683.693072 56.634 -80.4220
1695.893807 56.671 -79.4775
1708.182952 56.709 -78.5248
1720.561150 56.750 -77.5502
1733.029045 56.792 -76.5831
1745.587288 56.836 -75.6173
1758.236533 56.879 -74.6429
1770.977440 56.922 -73.6554
1783.810673 56.964 -72.6503
1796.736900 57.005 -71.6296
1809.756796 57.047 -70.5679
1822.871040 57.088 -69.4850
1836.080315 57.129 -68.3663
1849.385310 57.171 -67.2074
1862.786718 57.215 -66.0015
1876.285239 57.263 -64.7463
1889.881575 57.316 -63.4399
1903.576436 57.374 -62.0887
1917.370535 57.438 -60.7030
1931.264593 57.509 -59.2745
1945.259332 57.588 -57.8011
1959.355483 57.676 -56.2781
1973.553781 57.773 -54.7271
1987.854965 57.880 -53.1243
2002.259781 57.998 -51.4877
2016.768981 58.129 -49.8094
2031.383320 58.275 -48.1241
2046.103561 58.435 -46.4161
2060.930471 58.609 -44.7303
2075.864823 58.798 -43.0294
2090.907395 59.002 -41.3402
2106.058972 59.223 -39.6396
2121.320344 59.462 -37.9530
2136.692305 59.722 -36.3035
2152.175658 60.002 -34.6970
2167.771210 60.303 -33.1586
2183.479774 60.623 -31.7128
2199.302169 60.960 -30.3701
2215.239219 61.313 -29.1580
2231.291755 61.678 -28.0751
2247.460615 62.054 -27.1434
2263.746641 62.439 -26.3466
2280.150683 62.830 -25.7148
2296.673595 63.226 -25.2278
2313.316238 63.627 -24.8730
2330.079481 64.031 -24.6724
2346.964198 64.437 -24.6079
2363.971268 64.843 -24.6961
2381.101578 65.249 -24.9592
2398.356022 65.652 -25.3647
2415.735498 66.050 -25.9526
2433.240913 66.440 -26.7034
2450.873180 66.822 -27.6227
2468.633217 67.191 -28.7167
2486.521951 67.546 -29.9515
2504.540314 67.885 -31.3760
2522.689246 68.204 -32.9219
2540.969692 68.502 -34.6113
2559.382606 68.777 -36.4285
2577.928947 69.027 -38.3554
2596.609683 69.249 -40.3748
2615.425787 69.443 -42.4751
2634.378241 69.607 -44.6224
2653.468031 69.740 -46.8109
2672.696154 69.844 -49.0102
2692.063613 69.916 -51.2144
2711.571415 69.959 -53.3944
2731.220579 69.972 -55.5304
2751.012130 69.958 -57.6072
2770.947098 69.919 -59.5919
2791.026522 69.856 -61.4847
2811.251451 69.772 -63.2769
2831.622938 69.669 -64.9423
2852.142045 69.551 -66.4846
2872.809842 69.422 -67.9055
2893.627406 69.282 -69.1991
2914.595823 69.135 -70.3717
2935.716186 68.982 -71.4440
2956.989596 68.824 -72.3998
2978.417161 68.661 -73.2673
3000.000000 68.495 -74.0450
3021.739237 68.325 -74.6959
3043.636005 68.153 -75.2756
3065.691446 67.980 -75.7599
3087.906710 67.806 -76.1677
3110.282955 67.633 -76.4910
3132.821347 67.461 -76.7241
3155.523062 67.291 -76.9090
3178.389283 67.124 -77.0019
3201.421202 66.958 -77.0509
3224.620020 66.796 -77.0427
3247.986946 66.636 -76.9944
3271.523198 66.478 -76.8879
3295.230004 66.322 -76.7504
3319.108599 66.168 -76.5603
3343.160228 66.015 -76.3354
3367.386145 65.863 -76.0620
3391.787613 65.713 -75.7480
3416.365904 65.565 -75.3786
3441.122300 65.420 -74.9749
3466.058091 65.278 -74.5236
3491.174576 65.140 -74.0386
3516.473066 65.005 -73.5286
3541.954880 64.873 -72.9795
3567.621345 64.745 -72.4161
3593.473800 64.620 -71.8223
3619.513592 64.497 -71.1863
3645.742080 64.378 -70.5366
3672.160630 64.261 -69.8713
3698.770620 64.147 -69.1725
3725.573436 64.034 -68.4575
3752.570477 63.923 -67.7189
3779.763150 63.814 -66.9447
3807.152872 63.706 -66.1407
3834.741071 63.600 -65.3088
3862.529185 63.494 -64.4365
3890.518664 63.390 -63.5288
3918.710966 63.288 -62.5847
3947.107561 63.189 -61.5848
3975.709929 63.092 -60.5590
4004.519563 62.998 -59.4974
4033.537962 62.908 -58.4039
4062.766641 62.820 -57.2928
4092.207123 62.737 -56.1572
4121.860942 62.656 -55.0088
4151.729646 62.579 -53.8481
4181.814790 62.505 -52.6749
4212.117944 62.434 -51.5093
4242.640687 62.365 -50.3325
4273.384610 62.299 -49.1192
4304.351317 62.235 -47.9269
4335.542421 62.172 -46.7101
4366.959549 62.111 -45.4678
4398.604338 62.051 -44.2350
4430.478438 61.994 -42.9742
4462.583511 61.939 -41.6985
4494.921231 61.888 -40.4076
4527.493283 61.841 -39.1017
4560.301365 61.799 -37.7874
4593.347189 61.760 -36.4730
4626.632476 61.725 -35.1790
4660.158962 61.694 -33.8539
4693.928395 61.666 -32.5587
4727.942535 61.641 -31.2522
4762.203156 61.618 -29.9547
4796.712043 61.597 -28.6594
4831.470996 61.579 -27.3588
4866.481826 61.563 -26.0572
4901.746360 61.551 -24.7438
4937.266434 61.543 -23.4298
4973.043902 61.542 -22.1218
5009.080628 61.547 -20.8307
5045.378492 61.558 -19.5986
5081.939384 61.571 -18.4270
5118.765212 61.580 -17.3414
5155.857894 61.581 -16.3218
5193.219366 61.572 -15.3398
5230.851574 61.553 -14.3702
5268.756481 61.524 -13.4082
5306.936062 61.489 -12.4282
5345.392309 61.448 -11.4391
5384.127225 61.402 -10.4365
5423.142830 61.352 -9.4370
5462.441159 61.299 -8.3928
5502.024259 61.240 -7.3690
5541.894195 61.177 -6.3267
5582.053045 61.106 -5.2452
5622.502902 61.028 -4.1534
5663.245876 60.941 -3.0154
5704.284090 60.845 -1.8255
5745.619684 60.741 -0.5889
5787.254813 60.629 0.7206
5829.191647 60.508 2.1167
5871.432373 60.379 3.5955
5913.979192 60.242 5.1725
5956.834323 60.096 6.8590
6000.000000 59.943 8.6566
6043.478473 59.782 10.5973
6087.272010 59.612 12.6649
6131.382892 59.433 14.9341
6175.813420 59.245 17.4578
6220.565910 59.052 20.3394
6265.642695 58.865 23.6931
6311.046124 58.704 27.6731
6356.778566 58.599 32.3415
6402.842404 58.587 37.6589
6449.240040 58.700 43.4637
6495.973891 58.955 49.3557
6543.046396 59.349 55.0422
6590.460007 59.858 60.1835
6638.217197 60.454 64.5678
6686.320456 61.104 68.1647
6734.772290 61.781 70.9998
6783.575226 62.466 73.1196
6832.731809 63.144 74.5925
6882.244600 63.803 75.5252
6932.116181 64.438 75.9581
6982.349153 65.044 75.9549
7032.946133 65.618 75.5891
7083.909760 66.158 74.9074
7135.242690 66.661 73.9026
7186.947600 67.126 72.6449
7239.027185 67.552 71.1528
7291.484160 67.937 69.4987
7344.321260 68.283 67.6694
7397.541239 68.586 65.7305
7451.146872 68.847 63.6750
7505.140954 69.062 61.5226
7559.526299 69.229 59.3610
7614.305743 69.346 57.1859
7669.482141 69.412 55.0701
7725.058371 69.426 53.0548
7781.037328 69.389 51.1710
7837.421932 69.302 49.4674
7894.215122 69.169 47.9908
7951.419859 68.993 46.7511
8009.039125 68.780 45.7641
8067.075924 68.534 45.0490
8125.533282 68.261 44.5838
8184.414245 67.967 44.3809
8243.721885 67.658 44.4041
8303.459292 67.341 44.6859
8363.629581 67.022 45.1734
8424.235888 66.708 45.8613
8485.281374 66.405 46.7459
8546.769221 66.115 47.7862
8608.702634 65.844 48.9944
8671.084842 65.594 50.3328
8733.919097 65.366 51.7696
8797.208675 65.163 53.3232
8860.956876 64.983 54.9492
8925.167022 64.825 56.6580
8989.842461 64.688 58.3852
9054.986566 64.568 60.1236
9120.602731 64.466 61.8454
9186.694378 64.378 63.5232
9253.264952 64.301 65.1412
9320.317925 64.231 66.6594
9387.856790 64.160 68.0900
9455.885071 64.081 69.4265
9524.406312 63.986 70.7263
9593.424086 63.870 71.9528
9662.941992 63.729 73.2687
9732.963653 63.561 74.7013
9803.492719 63.368 76.3229
9874.532869 63.154 78.3208
9946.087805 62.933 80.8026
10018.161257 62.728 83.9079
10090.756983 62.577 87.7647
10163.878768 62.524 92.1894
10237.530423 62.601 96.8659
10311.715789 62.811 101.3491
10386.438732 63.130 105.2974
10461.703149 63.517 108.4727
10537.512962 63.933 110.8998
10613.872125 64.348 112.6713
10690.784618 64.746 113.9322
10768.254450 65.123 114.7823
10846.285661 65.478 115.3564
10924.882318 65.814 115.6096
11004.048518 66.126 115.6275
11083.788390 66.407 115.3004
11164.106090 66.645 114.7485
11245.005805 66.831 114.0159
11326.491752 66.958 113.1538
11408.568180 67.026 112.3119
11491.239368 67.039 111.5310
11574.509626 67.004 110.9360
11658.383294 66.933 110.5571
11742.864745 66.839 110.4527
11827.958384 66.739 110.5825
11913.668646 66.647 110.8878
12000.000000 66.570 111.3836
12086.956947 66.511 111.9186
12174.544019 66.466 112.5075
12262.765784 66.429 113.0459
12351.626840 66.392 113.6220
12441.131819 66.355 114.2430
12531.285389 66.322 114.9246
12622.092249 66.298 115.7065
12713.557132 66.292 116.5386
12805.684808 66.312 117.3991
12898.480079 66.363 118.1901
12991.947783 66.448 118.8458
13086.092792 66.561 119.2465
13180.920015 66.695 119.3592
13276.434395 66.839 119.0418
13372.640911 66.978 118.2546
13469.544580 67.098 116.9360
13567.150452 67.179 115.0926
13665.463617 67.205 112.6940
13764.489200 67.156 109.8307
13864.232362 67.013 106.6172
13964.698305 66.761 103.1632
14065.892266 66.390 99.6645
14167.819519 65.894 96.3401
14270.485380 65.277 93.2570
14373.895200 64.545 90.7088
14478.054370 63.715 88.7374
14582.968320 62.801 87.4839
14688.642520 61.826 86.9757
14795.082478 60.810 87.2373
14902.293745 59.773 88.2562
15010.281908 58.735 89.9635
15119.052599 57.715 92.3302
15228.611486 56.728 95.2935
15338.964283 55.789 98.7494
15450.116741 54.910 102.6293
15562.074656 54.103 106.8734
15674.843864 53.373 111.4341
15788.430244 52.724 116.2438
15902.839718 52.152 121.3169
16018.078250 51.650 126.5151
16134.151848 51.208 131.8748
16251.066563 50.817 137.3450
16368.828491 50.472 142.9170
16487.443769 50.167 148.5354
16606.918584 49.902 154.2413
16727.259161 49.675 159.9235
16848.471777 49.487 165.6789
16970.562748 49.341 171.4255
17093.538442 49.240 177.1451
17217.405268 49.188 -177.1750
17342.169684 49.189 -171.5495
17467.838194 49.248 -166.0655
17594.417350 49.366 -160.7330
17721.913751 49.547 -155.6003
17850.334044 49.787 -150.6977
17979.684923 50.083 -146.0834
18109.973131 50.423 -141.7685
18241.205462 50.789 -137.8207
18373.388756 51.155 -134.2426
18506.529905 51.491 -130.9630
18640.635849 51.765 -127.9357
18775.713581 51.943 -124.9948
18911.770141 51.997 -121.9541
19048.812624 51.906 -118.7016
19186.848172 51.659 -114.9783
19325.883983 51.259 -110.6082
19465.927305 50.726 -105.3330
19606.985439 50.103 -98.6152
19749.065738 49.465 -89.0461
19892.175609 48.925 -74.6117
20036.322514 48.609 -53.3829
