* Measurement data measured by REW V5.20.9
* Source: Input device not selected, no input selected, L, volume: no control. Timing signal peak level -16,5 dBFS, measurement signal peak level -15,4 dBFS
* Format: 256k Log Swept Sine, 1 sweep at -12,0 dBFS using an acoustic timing reference
* Dated: 13.02.2024 22:39:25
* REW Settings:
*  C-weighting compensation: Off
*  Target level: 75.0 dB
* Note: Delay -0,0199 ms (-6,8 mm, -0,27 in) using estimated IR delay relative to Acoustic reference on  R with no timing offset
* Measurement: LM
* Smoothing: 1/12 octave
* Frequency Step: 96 ppo
* Start Frequency: 20.187378 Hz
*
* Freq(Hz) SPL(dB) Phase(degrees)
20.187378 87.096 -44.4158
20.333664 87.157 -44.6552
20.481010 87.244 -45.0134
20.629424 87.346 -45.4621
20.778913 87.450 -45.9732
20.929486 87.549 -46.5212
21.081150 87.638 -47.0834
21.233912 87.713 -47.6395
21.387782 87.773 -48.1705
21.542767 87.818 -48.6593
21.698874 87.849 -49.0898
21.856113 87.869 -49.4484
22.014492 87.881 -49.7239
22.174018 87.887 -49.9097
22.334700 87.894 -50.0040
22.496546 87.905 -50.0116
22.659566 87.925 -49.9445
22.823766 87.958 -49.8214
22.989157 88.007 -49.6670
23.155745 88.073 -49.5091
23.323542 88.158 -49.3757
23.492554 88.258 -49.2913
23.662790 88.370 -49.2737
23.834261 88.492 -49.3320
24.006973 88.617 -49.4661
24.180938 88.744 -49.6677
24.356163 88.867 -49.9223
24.532658 88.986 -50.2124
24.710431 89.098 -50.5208
24.889493 89.204 -50.8343
25.069853 89.305 -51.1449
25.251519 89.402 -51.4522
25.434502 89.496 -51.7620
25.618811 89.586 -52.0851
25.804456 89.673 -52.4335
25.991445 89.755 -52.8171
26.179790 89.831 -53.2402
26.369500 89.900 -53.6987
26.560584 89.961 -54.1797
26.753053 90.014 -54.6626
26.946917 90.063 -55.1223
27.142185 90.109 -55.5342
27.338869 90.160 -55.8790
27.536977 90.222 -56.1489
27.736522 90.300 -56.3502
27.937512 90.399 -56.5044
28.139959 90.520 -56.6447
28.343872 90.661 -56.8093
28.549264 90.818 -57.0331
28.756143 90.982 -57.3406
28.964522 91.145 -57.7402
29.174411 91.298 -58.2236
29.385821 91.436 -58.7678
29.598763 91.554 -59.3402
29.813248 91.651 -59.9044
30.029287 91.730 -60.4266
30.246891 91.795 -60.8814
30.466073 91.851 -61.2559
30.686842 91.906 -61.5512
30.909212 91.966 -61.7816
31.133193 92.033 -61.9702
31.358797 92.110 -62.1431
31.586035 92.195 -62.3229
31.814921 92.287 -62.5240
32.045465 92.381 -62.7507
32.277680 92.474 -62.9980
32.511577 92.564 -63.2551
32.747169 92.648 -63.5098
32.984469 92.727 -63.7527
33.223488 92.801 -63.9805
33.464239 92.871 -64.1963
33.706735 92.939 -64.4082
33.950987 93.006 -64.6271
34.197010 93.072 -64.8626
34.444816 93.138 -65.1201
34.694417 93.204 -65.3997
34.945827 93.271 -65.6967
35.199059 93.340 -66.0031
35.454126 93.412 -66.3116
35.711041 93.488 -66.6175
35.969818 93.568 -66.9202
36.230470 93.651 -67.2227
36.493011 93.736 -67.5293
36.757455 93.821 -67.8426
37.023814 93.902 -68.1611
37.292104 93.978 -68.4789
37.562338 94.048 -68.7866
37.834530 94.114 -69.0752
38.108695 94.177 -69.3397
38.384846 94.240 -69.5814
38.662999 94.305 -69.8086
38.943167 94.374 -70.0330
39.225365 94.445 -70.2658
39.509608 94.518 -70.5128
39.795911 94.591 -70.7732
40.084289 94.662 -71.0410
40.374756 94.733 -71.3099
40.667328 94.803 -71.5775
40.962020 94.875 -71.8480
41.258848 94.947 -72.1299
41.557827 95.021 -72.4312
41.858972 95.095 -72.7532
42.162299 95.167 -73.0879
42.467824 95.236 -73.4202
42.775564 95.305 -73.7346
43.085533 95.377 -74.0227
43.397749 95.453 -74.2876
43.712227 95.535 -74.5415
44.028983 95.622 -74.7980
44.348036 95.713 -75.0621
44.669400 95.803 -75.3259
44.993093 95.890 -75.5700
45.319131 95.973 -75.7709
45.647532 96.049 -75.9091
45.978313 96.118 -75.9730
46.311491 96.178 -75.9580
46.647083 96.230 -75.8639
46.985107 96.275 -75.6976
47.325581 96.318 -75.4803
47.668521 96.369 -75.2576
48.013947 96.433 -75.1010
48.361876 96.517 -75.0935
48.712326 96.616 -75.3002
49.065315 96.723 -75.7397
49.420863 96.829 -76.3720
49.778987 96.925 -77.1117
50.139706 97.010 -77.8593
50.503039 97.086 -78.5351
50.869005 97.155 -79.1004
51.237623 97.223 -79.5589
51.608912 97.290 -79.9385
51.982891 97.355 -80.2695
52.359580 97.419 -80.5708
52.739000 97.482 -80.8489
53.121168 97.549 -81.1058
53.506106 97.620 -81.3462
53.893833 97.697 -81.5785
54.284370 97.777 -81.8119
54.677737 97.859 -82.0537
55.073955 97.939 -82.3106
55.473043 98.016 -82.5900
55.875024 98.089 -82.8974
56.279917 98.157 -83.2296
56.687745 98.218 -83.5692
57.098527 98.274 -83.8877
57.512287 98.327 -84.1571
57.929045 98.380 -84.3654
58.348822 98.436 -84.5247
58.771642 98.498 -84.6663
59.197525 98.567 -84.8258
59.626495 98.639 -85.0273
60.058573 98.716 -85.2748
60.493782 98.794 -85.5529
60.932145 98.873 -85.8349
61.373685 98.952 -86.0939
61.818424 99.030 -86.3132
62.266386 99.106 -86.4935
62.717593 99.180 -86.6531
63.172071 99.252 -86.8212
63.629842 99.323 -87.0245
64.090930 99.394 -87.2770
64.555359 99.465 -87.5753
65.023154 99.536 -87.9035
65.494339 99.608 -88.2415
65.968938 99.680 -88.5723
66.446976 99.751 -88.8864
66.928478 99.818 -89.1822
67.413469 99.883 -89.4639
67.901975 99.946 -89.7371
68.394021 100.007 -90.0065
68.889632 100.068 -90.2740
69.388835 100.129 -90.5397
69.891655 100.192 -90.8034
70.398118 100.256 -91.0661
70.908252 100.320 -91.3300
71.422083 100.384 -91.5989
71.939636 100.450 -91.8776
72.460941 100.516 -92.1695
72.986023 100.585 -92.4742
73.514909 100.656 -92.7867
74.047629 100.729 -93.0982
74.584208 100.802 -93.3994
75.124676 100.876 -93.6853
75.669061 100.949 -93.9585
76.217390 101.019 -94.2277
76.769692 101.087 -94.5015
77.325997 101.152 -94.7826
77.886333 101.215 -95.0667
78.450730 101.279 -95.3480
79.019216 101.344 -95.6250
79.591822 101.412 -95.9019
80.168577 101.483 -96.1852
80.749512 101.555 -96.4794
81.334656 101.627 -96.7822
81.924040 101.698 -97.0834
82.517696 101.767 -97.3702
83.115653 101.835 -97.6357
83.717943 101.902 -97.8863
84.324598 101.969 -98.1388
84.935649 102.038 -98.4097
85.551128 102.106 -98.7044
86.171066 102.172 -99.0175
86.795497 102.236 -99.3406
87.424453 102.298 -99.6681
88.057967 102.356 -99.9975
88.696071 102.412 -100.3288
89.338800 102.468 -100.6639
89.986185 102.526 -101.0047
90.638262 102.586 -101.3483
91.295065 102.646 -101.6871
91.956626 102.709 -102.0152
92.622982 102.773 -102.3333
93.294166 102.839 -102.6459
93.970214 102.907 -102.9562
94.651161 102.976 -103.2644
95.337042 103.043 -103.5710
96.027894 103.109 -103.8796
96.723752 103.174 -104.1939
97.424652 103.237 -104.5155
98.130631 103.299 -104.8439
98.841726 103.362 -105.1793
99.557974 103.425 -105.5235
100.279412 103.488 -105.8790
101.006078 103.552 -106.2443
101.738010 103.616 -106.6110
102.475245 103.680 -106.9656
103.217823 103.742 -107.2989
103.965782 103.802 -107.6134
104.719161 103.863 -107.9196
105.477999 103.924 -108.2267
106.242336 103.985 -108.5359
107.012212 104.046 -108.8428
107.787666 104.105 -109.1457
108.568740 104.162 -109.4518
109.355474 104.217 -109.7767
110.147909 104.273 -110.1335
110.946086 104.330 -110.5216
111.750047 104.390 -110.9283
112.559834 104.453 -111.3390
113.375489 104.515 -111.7448
114.197055 104.577 -112.1446
115.024574 104.637 -112.5416
115.858089 104.696 -112.9381
116.697645 104.756 -113.3331
117.543284 104.817 -113.7252
118.395051 104.878 -114.1143
119.252990 104.938 -114.4994
120.117147 104.996 -114.8773
120.987565 105.054 -115.2456
121.864291 105.111 -115.6057
122.747370 105.168 -115.9639
123.636848 105.223 -116.3279
124.532771 105.278 -116.7035
125.435187 105.331 -117.0921
126.344142 105.382 -117.4929
127.259684 105.434 -117.9060
128.181860 105.487 -118.3300
129.110718 105.543 -118.7596
130.046308 105.601 -119.1880
130.988677 105.660 -119.6116
131.937875 105.718 -120.0305
132.893951 105.774 -120.4478
133.856956 105.828 -120.8687
134.826938 105.880 -121.2974
135.803950 105.929 -121.7348
136.788041 105.974 -122.1794
137.779264 106.017 -122.6292
138.777669 106.059 -123.0820
139.783309 106.100 -123.5356
140.796237 106.143 -123.9885
141.816504 106.186 -124.4414
142.844165 106.230 -124.8967
143.879273 106.273 -125.3562
144.921881 106.317 -125.8200
145.972045 106.360 -126.2863
147.029819 106.403 -126.7521
148.095257 106.445 -127.2148
149.168417 106.488 -127.6728
150.249353 106.530 -128.1257
151.338121 106.572 -128.5744
152.434780 106.613 -129.0222
153.539385 106.653 -129.4736
154.651995 106.692 -129.9327
155.772667 106.729 -130.4014
156.901460 106.765 -130.8783
158.038432 106.800 -131.3598
159.183644 106.835 -131.8421
160.337154 106.868 -132.3234
161.499023 106.902 -132.8029
162.669312 106.934 -133.2811
163.848081 106.965 -133.7598
165.035392 106.996 -134.2411
166.231306 107.025 -134.7258
167.435887 107.054 -135.2133
168.649196 107.082 -135.7022
169.871298 107.109 -136.1919
171.102255 107.135 -136.6822
172.342133 107.161 -137.1721
173.590995 107.186 -137.6596
174.848907 107.210 -138.1433
176.115934 107.234 -138.6230
177.392143 107.257 -139.1003
178.677599 107.280 -139.5775
179.972371 107.302 -140.0574
181.276525 107.323 -140.5416
182.590129 107.343 -141.0300
183.913252 107.363 -141.5208
185.245964 107.381 -142.0120
186.588332 107.399 -142.5014
187.940428 107.416 -142.9872
189.302322 107.433 -143.4681
190.674085 107.449 -143.9434
192.055788 107.465 -144.4130
193.447503 107.479 -144.8778
194.849303 107.491 -145.3399
196.261262 107.502 -145.8020
197.683452 107.511 -146.2658
199.115948 107.519 -146.7327
200.558824 107.527 -147.2037
202.012156 107.534 -147.6778
203.476019 107.540 -148.1522
204.950490 107.546 -148.6236
206.435646 107.551 -149.0902
207.931564 107.556 -149.5516
209.438322 107.561 -150.0085
210.955998 107.564 -150.4620
212.484672 107.567 -150.9129
214.024424 107.569 -151.3621
215.575333 107.569 -151.8110
217.137481 107.568 -152.2604
218.710948 107.567 -152.7100
220.295818 107.565 -153.1579
221.892172 107.563 -153.6015
223.500094 107.560 -154.0396
225.119668 107.558 -154.4729
226.750978 107.554 -154.9029
228.394109 107.549 -155.3296
230.049147 107.544 -155.7519
231.716178 107.537 -156.1681
233.395289 107.530 -156.5775
235.086567 107.522 -156.9806
236.790102 107.513 -157.3791
238.505980 107.504 -157.7742
240.234293 107.494 -158.1665
241.975130 107.484 -158.5557
243.728581 107.473 -158.9411
245.494739 107.462 -159.3233
247.273695 107.449 -159.7038
249.065542 107.436 -160.0853
250.870374 107.422 -160.4687
252.688284 107.407 -160.8523
254.519367 107.391 -161.2334
256.363720 107.376 -161.6105
258.221437 107.361 -161.9844
260.092616 107.346 -162.3559
261.977354 107.332 -162.7231
263.875750 107.317 -163.0820
265.787903 107.301 -163.4289
267.713911 107.284 -163.7645
269.653877 107.265 -164.0923
271.607900 107.246 -164.4159
273.576083 107.226 -164.7377
275.558528 107.206 -165.0590
277.555338 107.186 -165.3803
279.566619 107.166 -165.7019
281.592474 107.145 -166.0241
283.633009 107.125 -166.3468
285.688331 107.104 -166.6676
287.758546 107.083 -166.9821
289.843763 107.062 -167.2862
291.944090 107.041 -167.5786
294.059638 107.020 -167.8610
296.190515 106.999 -168.1370
298.336833 106.976 -168.4090
300.498705 106.953 -168.6786
302.676243 106.930 -168.9474
304.869559 106.907 -169.2167
307.078770 106.884 -169.4860
309.303989 106.861 -169.7513
311.545334 106.837 -170.0069
313.802919 106.812 -170.2512
316.076865 106.787 -170.4879
318.367288 106.762 -170.7213
320.674309 106.737 -170.9528
322.998047 106.713 -171.1800
325.338624 106.689 -171.4003
327.696162 106.664 -171.6138
330.070783 106.639 -171.8222
332.462612 106.612 -172.0262
334.871773 106.586 -172.2262
337.298392 106.559 -172.4239
339.742595 106.533 -172.6209
342.204510 106.507 -172.8176
344.684265 106.481 -173.0125
347.181989 106.457 -173.2035
349.697813 106.433 -173.3886
352.231868 106.409 -173.5662
354.784285 106.386 -173.7367
357.355198 106.362 -173.9033
359.944741 106.338 -174.0704
362.553049 106.314 -174.2404
365.180258 106.290 -174.4141
367.826505 106.266 -174.5899
370.491927 106.241 -174.7639
373.176665 106.217 -174.9325
375.880856 106.193 -175.0944
378.604644 106.169 -175.2502
381.348169 106.146 -175.4012
384.111575 106.123 -175.5507
386.895006 106.100 -175.7025
389.698607 106.078 -175.8593
392.522524 106.055 -176.0216
395.366904 106.032 -176.1893
398.231895 106.009 -176.3603
401.117648 105.986 -176.5289
404.024312 105.964 -176.6896
406.952038 105.943 -176.8422
409.900981 105.922 -176.9929
412.871292 105.900 -177.1469
415.863128 105.878 -177.3052
418.876643 105.855 -177.4664
421.911996 105.832 -177.6302
424.969344 105.808 -177.7986
428.048847 105.784 -177.9734
431.150666 105.759 -178.1528
434.274961 105.732 -178.3328
437.421897 105.705 -178.5126
440.591636 105.677 -178.6999
443.784345 105.646 -178.9079
447.000189 105.612 -179.1438
450.239337 105.575 -179.3977
453.501956 105.536 -179.6523
456.788219 105.496 -179.8978
460.098294 105.453 179.8682
463.432356 105.407 179.6461
466.790578 105.357 179.4397
470.173135 105.305 179.2552
473.580203 105.251 179.0988
477.011961 105.195 178.9753
480.468586 105.140 178.8862
483.950259 105.084 178.8291
487.457163 105.030 178.7974
490.989478 104.976 178.7841
494.547390 104.921 178.7842
498.131084 104.866 178.7953
501.740748 104.810 178.8179
505.376568 104.752 178.8518
509.038735 104.694 178.8966
512.727439 104.636 178.9529
516.442874 104.579 179.0207
520.185232 104.523 179.0987
523.954708 104.468 179.1857
527.751500 104.414 179.2842
531.575805 104.363 179.3988
535.427822 104.312 179.5315
539.307753 104.264 179.6821
543.215800 104.218 179.8507
547.152165 104.174 -179.9624
551.117055 104.132 -179.7585
555.110677 104.094 -179.5390
559.133237 104.059 -179.3067
563.184947 104.029 -179.0688
567.266018 104.002 -178.8356
571.376661 103.978 -178.6141
575.517092 103.955 -178.4077
579.687526 103.934 -178.2173
583.888181 103.913 -178.0390
588.119275 103.894 -177.8665
592.381030 103.876 -177.6955
596.673667 103.859 -177.5234
600.997410 103.843 -177.3485
605.352485 103.827 -177.1699
609.739119 103.812 -176.9887
614.157540 103.799 -176.8081
618.607979 103.785 -176.6326
623.090667 103.773 -176.4677
627.605839 103.760 -176.3180
632.153730 103.748 -176.1835
636.734576 103.735 -176.0595
641.348617 103.722 -175.9397
645.996094 103.708 -175.8201
650.677248 103.695 -175.6995
655.392323 103.681 -175.5776
660.141566 103.667 -175.4547
664.925224 103.654 -175.3313
669.743546 103.641 -175.2078
674.596784 103.628 -175.0842
679.485191 103.616 -174.9589
684.409020 103.603 -174.8295
689.368530 103.591 -174.6956
694.363979 103.579 -174.5596
699.395626 103.566 -174.4246
704.463736 103.554 -174.2939
709.568570 103.541 -174.1703
714.710396 103.530 -174.0543
719.889483 103.518 -173.9427
725.106099 103.505 -173.8315
730.360516 103.491 -173.7162
735.653010 103.476 -173.5930
740.983855 103.460 -173.4603
746.353329 103.443 -173.3199
751.761713 103.426 -173.1744
757.209288 103.409 -173.0284
762.696339 103.393 -172.8873
768.223151 103.378 -172.7552
773.790013 103.363 -172.6320
779.397214 103.348 -172.5149
785.045047 103.333 -172.4004
790.733808 103.316 -172.2848
796.463791 103.300 -172.1629
802.235296 103.284 -172.0287
808.048623 103.269 -171.8792
813.904077 103.253 -171.7169
819.801961 103.237 -171.5490
825.742584 103.220 -171.3823
831.726255 103.203 -171.2200
837.753287 103.185 -171.0602
843.823992 103.169 -170.8989
849.938689 103.153 -170.7333
856.097695 103.136 -170.5629
862.301332 103.119 -170.3887
868.549922 103.101 -170.2111
874.843793 103.081 -170.0288
881.183272 103.060 -169.8416
887.568689 103.039 -169.6514
894.000378 103.017 -169.4609
900.478673 102.996 -169.2714
907.003913 102.976 -169.0811
913.576437 102.957 -168.8846
920.196588 102.939 -168.6755
926.864712 102.921 -168.4492
933.581156 102.904 -168.2072
940.346270 102.888 -167.9565
947.160407 102.872 -167.7052
954.023921 102.856 -167.4577
960.937172 102.837 -167.2122
967.900519 102.818 -166.9624
974.914325 102.796 -166.7015
981.978956 102.775 -166.4293
989.094780 102.755 -166.1503
996.262169 102.736 -165.8694
1003.481495 102.720 -165.5892
1010.753136 102.707 -165.3088
1018.077470 102.695 -165.0229
1025.454879 102.684 -164.7264
1032.885748 102.672 -164.4197
1040.370463 102.660 -164.1067
1047.909417 102.649 -163.7902
1055.503000 102.638 -163.4700
1063.151610 102.627 -163.1447
1070.855645 102.616 -162.8133
1078.615506 102.606 -162.4759
1086.431599 102.595 -162.1328
1094.304330 102.584 -161.7835
1102.234110 102.572 -161.4270
1110.221353 102.561 -161.0634
1118.266475 102.551 -160.6956
1126.369895 102.543 -160.3274
1134.532035 102.535 -159.9597
1142.753322 102.529 -159.5886
1151.034184 102.523 -159.2084
1159.375052 102.518 -158.8153
1167.776361 102.513 -158.4088
1176.238550 102.510 -157.9913
1184.762060 102.507 -157.5674
1193.347334 102.506 -157.1404
1201.994821 102.504 -156.7102
1210.704971 102.504 -156.2763
1219.478238 102.504 -155.8388
1228.315080 102.504 -155.3978
1237.215957 102.505 -154.9523
1246.181334 102.507 -154.5009
1255.211678 102.509 -154.0419
1264.307459 102.513 -153.5738
1273.469152 102.518 -153.0958
1282.697235 102.524 -152.6092
1291.992188 102.532 -152.1171
1301.354495 102.541 -151.6230
1310.784647 102.551 -151.1282
1320.283132 102.562 -150.6317
1329.850448 102.573 -150.1304
1339.487093 102.585 -149.6208
1349.193569 102.598 -149.1013
1358.970381 102.612 -148.5730
1368.818041 102.628 -148.0387
1378.737061 102.644 -147.5001
1388.727958 102.661 -146.9572
1398.791253 102.679 -146.4095
1408.927471 102.699 -145.8560
1419.137140 102.719 -145.2944
1429.420793 102.741 -144.7222
1439.778965 102.764 -144.1393
1450.212197 102.789 -143.5488
1460.721033 102.817 -142.9537
1471.306019 102.846 -142.3542
1481.967709 102.876 -141.7478
1492.706658 102.909 -141.1303
1503.523426 102.944 -140.4978
1514.418576 102.981 -139.8498
1525.392678 103.020 -139.1879
1536.446302 103.061 -138.5147
1547.580025 103.104 -137.8330
1558.794428 103.148 -137.1444
1570.090095 103.194 -136.4481
1581.467615 103.243 -135.7415
1592.927581 103.295 -135.0230
1604.470591 103.351 -134.2919
1616.097246 103.411 -133.5474
1627.808153 103.474 -132.7863
1639.603922 103.540 -132.0040
1651.485168 103.610 -131.1997
1663.452510 103.682 -130.3783
1675.506573 103.759 -129.5452
1687.647984 103.841 -128.7024
1699.877377 103.927 -127.8487
1712.195390 104.019 -126.9829
1724.602663 104.116 -126.1056
1737.099845 104.219 -125.2189
1749.687587 104.330 -124.3254
1762.366544 104.449 -123.4282
1775.137379 104.576 -122.5297
1788.000756 104.711 -121.6294
1800.957346 104.855 -120.7264
1814.007826 105.009 -119.8235
1827.152874 105.174 -118.9281
1840.393177 105.350 -118.0499
1853.729425 105.536 -117.1975
1867.162312 105.732 -116.3750
1880.692540 105.938 -115.5853
1894.320813 106.154 -114.8358
1908.047843 106.380 -114.1372
1921.874344 106.616 -113.4984
1935.801038 106.861 -112.9234
1949.828650 107.115 -112.4161
1963.957912 107.376 -111.9847
1978.189561 107.644 -111.6393
1992.524338 107.916 -111.3843
2006.962991 108.192 -111.2158
2021.506272 108.471 -111.1261
2036.154940 108.751 -111.1108
2050.909758 109.034 -111.1714
2065.771495 109.318 -111.3140
2080.740927 109.604 -111.5433
2095.818833 109.891 -111.8610
2111.006001 110.178 -112.2697
2126.303220 110.464 -112.7729
2141.711290 110.749 -113.3711
2157.231013 111.030 -114.0611
2172.863198 111.308 -114.8407
2188.608660 111.581 -115.7115
2204.468221 111.848 -116.6764
2220.442706 112.108 -117.7349
2236.532950 112.360 -118.8810
2252.739789 112.601 -120.1065
2269.064070 112.833 -121.4061
2285.506644 113.055 -122.7758
2302.068367 113.265 -124.2094
2318.750104 113.464 -125.7000
2335.552723 113.652 -127.2441
2352.477101 113.827 -128.8397
2369.524119 113.989 -130.4832
2386.694668 114.139 -132.1685
2403.989641 114.274 -133.8904
2421.409941 114.396 -135.6440
2438.956476 114.504 -137.4244
2456.630160 114.598 -139.2242
2474.431915 114.676 -141.0348
2492.362668 114.740 -142.8486
2510.423356 114.789 -144.6593
2528.614918 114.824 -146.4606
2546.938304 114.846 -148.2459
2565.394469 114.853 -150.0094
2583.984375 114.848 -151.7458
2602.708991 114.830 -153.4501
2621.569293 114.801 -155.1169
2640.566265 114.759 -156.7420
2659.700897 114.707 -158.3223
2678.974186 114.645 -159.8544
2698.387137 114.573 -161.3347
2717.940763 114.492 -162.7594
2737.636082 114.402 -164.1254
2757.474121 114.305 -165.4301
2777.455915 114.202 -166.6711
2797.582506 114.093 -167.8469
2817.854942 113.978 -168.9568
2838.274281 113.860 -170.0002
2858.841586 113.738 -170.9774
2879.557931 113.615 -171.8902
2900.424394 113.489 -172.7411
2921.442065 113.363 -173.5326
2942.612039 113.236 -174.2670
2963.935418 113.109 -174.9454
2985.413316 112.983 -175.5692
3007.046852 112.858 -176.1398
3028.837153 112.734 -176.6600
3050.785356 112.612 -177.1341
3072.892604 112.492 -177.5668
3095.160050 112.375 -177.9622
3117.588856 112.260 -178.3230
3140.180190 112.146 -178.6502
3162.935230 112.035 -178.9441
3185.855163 111.927 -179.2049
3208.941182 111.820 -179.4337
3232.194493 111.717 -179.6322
3255.616307 111.616 -179.8027
3279.207844 111.518 -179.9479
3302.970336 111.423 179.9295
3326.905021 111.331 179.8275
3351.013146 111.242 179.7442
3375.295969 111.156 179.6783
3399.754755 111.072 179.6290
3424.390779 110.991 179.5960
3449.205326 110.912 179.5795
3474.199690 110.835 179.5800
3499.375173 110.761 179.5974
3524.733088 110.688 179.6315
3550.274757 110.619 179.6821
3576.001511 110.551 179.7486
3601.914692 110.487 179.8311
3628.015651 110.425 179.9302
3654.305748 110.366 -179.9532
3680.786354 110.310 -179.8187
3707.458849 110.257 -179.6668
3734.324624 110.208 -179.4995
3761.385080 110.164 -179.3200
3788.641627 110.123 -179.1312
3816.095686 110.087 -178.9353
3843.748688 110.055 -178.7333
3871.602076 110.026 -178.5257
3899.657300 110.002 -178.3132
3927.915825 109.982 -178.0967
3956.379122 109.966 -177.8774
3985.048676 109.954 -177.6566
4013.925981 109.946 -177.4352
4043.012544 109.942 -177.2141
4072.309879 109.943 -176.9937
4101.819515 109.948 -176.7749
4131.542990 109.958 -176.5588
4161.481854 109.973 -176.3469
4191.637667 109.992 -176.1408
4222.012001 110.016 -175.9410
4252.606441 110.044 -175.7476
4283.422580 110.078 -175.5600
4314.462026 110.117 -175.3781
4345.726396 110.162 -175.2025
4377.217321 110.214 -175.0351
4408.936442 110.274 -174.8797
4440.885413 110.342 -174.7418
4473.065899 110.419 -174.6282
4505.479579 110.506 -174.5466
4538.128141 110.603 -174.5055
4571.013288 110.710 -174.5143
4604.136735 110.827 -174.5826
4637.500207 110.954 -174.7201
4671.105446 111.091 -174.9360
4704.954201 111.236 -175.2392
4739.048239 111.389 -175.6383
4773.389336 111.550 -176.1421
4807.979283 111.719 -176.7601
4842.819883 111.894 -177.5026
4877.912952 112.075 -178.3817
4913.260320 112.261 -179.4105
4948.863830 112.451 179.3958
4984.725337 112.643 178.0204
5020.846712 112.834 176.4446
5057.229836 113.021 174.6499
5093.876609 113.200 172.6194
5130.788938 113.364 170.3411
5167.968750 113.509 167.8099
5205.417982 113.625 165.0289
5243.138586 113.707 162.0106
5281.132530 113.746 158.7778
5319.401793 113.736 155.3643
5357.948371 113.670 151.8150
5396.774274 113.544 148.1851
5435.881525 113.354 144.5365
5475.272163 113.099 140.9344
5514.948243 112.782 137.4421
5554.911831 112.406 134.1173
5595.165012 111.976 131.0074
5635.709884 111.501 128.1466
5676.548561 110.989 125.5533
5717.683172 110.447 123.2289
5759.115861 109.883 121.1595
5800.848789 109.304 119.3192
5842.884130 108.714 117.6743
5885.224077 108.113 116.1888
5927.870837 107.502 114.8285
5970.826633 106.878 113.5648
6014.093704 106.237 112.3776
6057.674306 105.572 111.2556
6101.570711 104.879 110.1940
6145.785208 104.151 109.1916
6190.320101 103.381 108.2476
6235.177712 102.561 107.3627
6280.360380 101.680 106.5421
6325.870460 100.727 105.8055
6371.710325 99.688 105.2040
6417.882365 98.555 104.8514
6464.388986 97.329 104.9942
6511.232613 96.045 106.2061
6558.415689 94.818 110.1023
6605.940673 93.900 123.0900
6653.810042 93.637 176.9693
6702.026292 94.184 -128.2603
6750.591937 95.321 -115.3208
6799.509509 96.701 -111.9359
6848.781558 98.095 -111.5320
6898.410653 99.402 -112.4636
6948.399380 100.589 -114.1411
6998.750346 101.653 -116.2979
7049.466176 102.601 -118.7925
7100.549514 103.441 -121.5402
7152.003023 104.181 -124.4849
7203.829385 104.827 -127.5846
7256.031302 105.385 -130.8022
7308.611496 105.859 -134.1016
7361.572708 106.252 -137.4457
7414.917698 106.568 -140.7965
7468.649249 106.812 -144.1157
7522.770160 106.988 -147.3650
7577.283253 107.100 -150.5081
7632.191371 107.153 -153.5105
7687.497376 107.152 -156.3407
7743.204151 107.102 -158.9708
7799.314600 107.011 -161.3779
7855.831649 106.883 -163.5451
7912.758244 106.725 -165.4621
7970.097352 106.545 -167.1245
8027.851962 106.347 -168.5335
8086.025087 106.137 -169.6947
8144.619758 105.920 -170.6174
8203.639030 105.701 -171.3136
8263.085980 105.483 -171.7971
8322.963708 105.271 -172.0835
8383.275334 105.066 -172.1905
8444.024002 104.873 -172.1389
8505.212881 104.692 -171.9527
8566.845160 104.526 -171.6570
8628.924051 104.375 -171.2761
8691.452792 104.238 -170.8302
8754.434642 104.114 -170.3352
8817.872884 104.004 -169.8050
8881.770826 103.907 -169.2553
8946.131799 103.823 -168.7051
9010.959157 103.751 -168.1771
9076.256282 103.689 -167.6969
9142.026576 103.634 -167.2905
9208.273470 103.581 -166.9815
9275.000415 103.523 -166.7865
9342.210891 103.452 -166.7087
9409.908403 103.358 -166.7280
9478.096478 103.228 -166.7912
9546.778672 103.052 -166.8003
9615.958566 102.825 -166.6046
9685.639765 102.548 -166.0021
9755.825904 102.237 -164.7594
9826.520640 101.924 -162.6633
9897.727659 101.658 -159.6073
9969.450674 101.497 -155.6923
10041.693423 101.488 -151.2676
10114.459673 101.645 -146.8429
10187.753217 101.953 -142.8978
10261.577877 102.369 -139.7298
10335.937500 102.847 -137.4294
10410.835964 103.349 -135.9466
10486.277173 103.848 -135.1679
10562.265060 104.325 -134.9664
10638.803587 104.771 -135.2219
10715.896743 105.181 -135.8260
10793.548548 105.555 -136.6822
10871.763050 105.898 -137.7094
10950.544327 106.218 -138.8520
11029.896485 106.525 -140.0936
11109.823662 106.828 -141.4672
11190.330024 107.128 -143.0486
11271.419768 107.415 -144.9223
11353.097122 107.670 -147.1329
11435.366344 107.872 -149.6509
11518.231722 108.005 -152.3761
11601.697577 108.061 -155.1706
11685.768261 108.045 -157.8974
11770.448155 107.966 -160.4448
11855.741674 107.837 -162.7362
11941.653265 107.673 -164.7289
12028.187408 107.489 -166.4078
12115.348612 107.298 -167.7790
12203.141422 107.110 -168.8647
12291.570415 106.937 -169.6983
12380.640201 106.787 -170.3223
12470.355424 106.668 -170.7863
12560.720760 106.585 -171.1466
12651.740920 106.543 -171.4653
12743.420650 106.546 -171.8105
12835.764729 106.595 -172.2560
12928.777972 106.690 -172.8813
13022.465227 106.828 -173.7702
13116.831378 107.004 -175.0079
13211.881345 107.207 -176.6761
13307.620084 107.425 -178.8457
13404.052584 107.638 178.4315
13501.183875 107.826 175.1316
13599.019019 107.964 171.2659
13697.563116 108.029 166.8872
13796.821305 107.998 162.0921
13896.798760 107.853 157.0165
13997.500692 107.582 151.8256
14098.932352 107.180 146.6969
14201.099028 106.650 141.8028
14304.006046 106.002 137.2969
14407.658770 105.249 133.3057
14512.062604 104.410 129.9243
14617.222992 103.502 127.2134
14723.145416 102.548 125.1978
14829.835397 101.565 123.8690
14937.298497 100.574 123.1922
15045.540320 99.588 123.1158
15154.566507 98.622 123.5805
15264.382743 97.685 124.5234
15374.994752 96.785 125.8812
15486.408302 95.927 127.5927
15598.629201 95.113 129.6017
15711.663298 94.345 131.8594
15825.516487 93.622 134.3252
15940.194703 92.945 136.9655
16055.703925 92.310 139.7533
16172.050174 91.719 142.6668
16289.239516 91.169 145.6884
16407.278061 90.660 148.8040
16526.171961 90.191 152.0022
16645.927415 89.762 155.2732
16766.550667 89.374 158.6072
16888.048005 89.027 161.9915
17010.425762 88.722 165.4086
17133.690320 88.461 168.8369
17257.848103 88.245 172.2501
17382.905584 88.075 175.6174
17508.869284 87.952 178.9007
17635.745768 87.877 -177.9461
17763.541652 87.851 -174.9782
17892.263597 87.873 -172.2624
18021.918315 87.938 -169.8799
18152.512564 88.042 -167.9249
18284.053153 88.172 -166.4951
18416.546939 88.312 -165.6769
18550.000830 88.438 -165.5275
18684.421783 88.522 -166.0564
18819.816805 88.534 -167.2113
18956.192956 88.447 -168.8702
19093.557344 88.239 -170.8438
19231.917131 87.900 -172.8942
19371.279531 87.440 -174.7714
19511.651807 86.893 -176.2656
19653.041280 86.326 -177.2620
19795.455318 85.840 -177.7800
19938.901348 85.553 -177.9549
