* Measurement data measured by REW V5.20.9
* Source: Input device not selected, no input selected, L, volume: no control. Timing signal peak level -14,9 dBFS, measurement signal peak level -14,8 dBFS
* Format: 256k Log Swept Sine, 1 sweep at -12,0 dBFS using an acoustic timing reference
* Dated: 13.02.2024 22:42:26
* REW Settings:
*  C-weighting compensation: Off
*  Target level: 75.0 dB
* Note: Delay -0,0195 ms (-6,7 mm, -0,26 in) using estimated IR delay relative to Acoustic reference on  R with no timing offset
* Measurement: HYBRID DONUT
* Smoothing: 1/12 octave
* Frequency Step: 96 ppo
* Start Frequency: 20.187378 Hz
*
* Freq(Hz) SPL(dB) Phase(degrees)
20.187378 93.655 -51.1961
20.333664 93.683 -51.3350
20.481010 93.726 -51.5378
20.629424 93.782 -51.7838
20.778913 93.848 -52.0568
20.929486 93.923 -52.3474
21.081150 94.007 -52.6521
21.233912 94.099 -52.9712
21.387782 94.197 -53.3070
21.542767 94.300 -53.6622
21.698874 94.408 -54.0383
21.856113 94.519 -54.4349
22.014492 94.631 -54.8498
22.174018 94.743 -55.2785
22.334700 94.853 -55.7152
22.496546 94.962 -56.1533
22.659566 95.068 -56.5865
22.823766 95.172 -57.0097
22.989157 95.275 -57.4197
23.155745 95.377 -57.8159
23.323542 95.478 -58.2006
23.492554 95.580 -58.5783
23.662790 95.683 -58.9556
23.834261 95.787 -59.3395
24.006973 95.891 -59.7367
24.180938 95.994 -60.1518
24.356163 96.097 -60.5868
24.532658 96.196 -61.0403
24.710431 96.293 -61.5073
24.889493 96.385 -61.9800
25.069853 96.473 -62.4488
25.251519 96.557 -62.9036
25.434502 96.637 -63.3354
25.618811 96.716 -63.7378
25.804456 96.795 -64.1080
25.991445 96.875 -64.4478
26.179790 96.957 -64.7627
26.369500 97.042 -65.0618
26.560584 97.130 -65.3556
26.753053 97.221 -65.6548
26.946917 97.314 -65.9682
27.142185 97.406 -66.3010
27.338869 97.497 -66.6546
27.536977 97.584 -67.0263
27.736522 97.669 -67.4101
27.937512 97.749 -67.7981
28.139959 97.826 -68.1820
28.343872 97.901 -68.5549
28.549264 97.975 -68.9128
28.756143 98.049 -69.2550
28.964522 98.125 -69.5846
29.174411 98.203 -69.9078
29.385821 98.285 -70.2327
29.598763 98.370 -70.5679
29.813248 98.457 -70.9206
30.029287 98.544 -71.2958
30.246891 98.632 -71.6950
30.466073 98.717 -72.1166
30.686842 98.800 -72.5560
30.909212 98.880 -73.0065
31.133193 98.956 -73.4605
31.358797 99.029 -73.9105
31.586035 99.100 -74.3503
31.814921 99.170 -74.7755
32.045465 99.239 -75.1844
32.277680 99.308 -75.5779
32.511577 99.378 -75.9590
32.747169 99.451 -76.3324
32.984469 99.524 -76.7037
33.223488 99.599 -77.0783
33.464239 99.675 -77.4606
33.706735 99.750 -77.8535
33.950987 99.826 -78.2579
34.197010 99.901 -78.6730
34.444816 99.975 -79.0968
34.694417 100.048 -79.5267
34.945827 100.122 -79.9604
35.199059 100.196 -80.3961
35.454126 100.272 -80.8331
35.711041 100.348 -81.2711
35.969818 100.425 -81.7097
36.230470 100.503 -82.1480
36.493011 100.580 -82.5839
36.757455 100.656 -83.0142
37.023814 100.731 -83.4352
37.292104 100.803 -83.8433
37.562338 100.874 -84.2366
37.834530 100.943 -84.6151
38.108695 101.012 -84.9815
38.384846 101.080 -85.3404
38.662999 101.149 -85.6974
38.943167 101.219 -86.0581
39.225365 101.289 -86.4267
39.509608 101.360 -86.8058
39.795911 101.430 -87.1963
40.084289 101.500 -87.5974
40.374756 101.569 -88.0076
40.667328 101.637 -88.4251
40.962020 101.704 -88.8478
41.258848 101.771 -89.2742
41.557827 101.837 -89.7035
41.858972 101.905 -90.1357
42.162299 101.974 -90.5717
42.467824 102.044 -91.0132
42.775564 102.116 -91.4611
43.085533 102.188 -91.9144
43.397749 102.260 -92.3696
43.712227 102.329 -92.8212
44.028983 102.396 -93.2634
44.348036 102.458 -93.6928
44.669400 102.517 -94.1106
44.993093 102.573 -94.5233
45.319131 102.628 -94.9406
45.647532 102.682 -95.3729
45.978313 102.738 -95.8271
46.311491 102.797 -96.3055
46.647083 102.862 -96.8059
46.985107 102.934 -97.3242
47.325581 103.014 -97.8560
47.668521 103.100 -98.3968
48.013947 103.187 -98.9398
48.361876 103.271 -99.4736
48.712326 103.345 -99.9811
49.065315 103.408 -100.4433
49.420863 103.456 -100.8459
49.778987 103.494 -101.1863
50.139706 103.527 -101.4777
50.503039 103.558 -101.7471
50.869005 103.592 -102.0270
51.237623 103.632 -102.3440
51.608912 103.678 -102.7105
51.982891 103.728 -103.1216
52.359580 103.780 -103.5605
52.739000 103.834 -104.0068
53.121168 103.887 -104.4448
53.506106 103.940 -104.8669
53.893833 103.990 -105.2725
54.284370 104.038 -105.6649
54.677737 104.084 -106.0479
55.073955 104.130 -106.4254
55.473043 104.177 -106.8038
55.875024 104.228 -107.1935
56.279917 104.283 -107.6076
56.687745 104.341 -108.0570
57.098527 104.398 -108.5443
57.512287 104.452 -109.0617
57.929045 104.502 -109.5938
58.348822 104.549 -110.1251
58.771642 104.595 -110.6459
59.197525 104.642 -111.1543
59.626495 104.691 -111.6519
60.058573 104.741 -112.1381
60.493782 104.788 -112.6086
60.932145 104.833 -113.0591
61.373685 104.875 -113.4903
61.818424 104.914 -113.9104
62.266386 104.953 -114.3308
62.717593 104.992 -114.7600
63.172071 105.032 -115.1998
63.629842 105.075 -115.6464
64.090930 105.121 -116.0949
64.555359 105.170 -116.5423
65.023154 105.218 -116.9877
65.494339 105.265 -117.4318
65.968938 105.308 -117.8761
66.446976 105.349 -118.3246
66.928478 105.389 -118.7827
67.413469 105.428 -119.2547
67.901975 105.468 -119.7399
68.394021 105.508 -120.2314
68.889632 105.548 -120.7194
69.388835 105.587 -121.1951
69.891655 105.625 -121.6544
70.398118 105.663 -122.0990
70.908252 105.699 -122.5338
71.422083 105.735 -122.9643
71.939636 105.771 -123.3945
72.460941 105.807 -123.8265
72.986023 105.842 -124.2615
73.514909 105.878 -124.7016
74.047629 105.914 -125.1503
74.584208 105.949 -125.6109
75.124676 105.982 -126.0833
75.669061 106.015 -126.5627
76.217390 106.046 -127.0396
76.769692 106.075 -127.5045
77.325997 106.104 -127.9520
77.886333 106.131 -128.3842
78.450730 106.158 -128.8087
79.019216 106.184 -129.2349
79.591822 106.209 -129.6698
80.168577 106.233 -130.1159
80.749512 106.257 -130.5722
81.334656 106.281 -131.0354
81.924040 106.305 -131.5014
82.517696 106.330 -131.9666
83.115653 106.354 -132.4295
83.717943 106.378 -132.8899
84.324598 106.401 -133.3476
84.935649 106.423 -133.8021
85.551128 106.445 -134.2530
86.171066 106.466 -134.7019
86.795497 106.487 -135.1512
87.424453 106.507 -135.6024
88.057967 106.527 -136.0551
88.696071 106.547 -136.5071
89.338800 106.566 -136.9561
89.986185 106.586 -137.3999
90.638262 106.605 -137.8374
91.295065 106.624 -138.2686
91.956626 106.642 -138.6952
92.622982 106.659 -139.1196
93.294166 106.675 -139.5443
93.970214 106.689 -139.9703
94.651161 106.702 -140.3973
95.337042 106.713 -140.8233
96.027894 106.724 -141.2451
96.723752 106.736 -141.6602
97.424652 106.747 -142.0683
98.130631 106.759 -142.4716
98.841726 106.770 -142.8757
99.557974 106.781 -143.2870
100.279412 106.792 -143.7091
101.006078 106.803 -144.1394
101.738010 106.813 -144.5712
102.475245 106.824 -144.9986
103.217823 106.833 -145.4190
103.965782 106.841 -145.8324
104.719161 106.848 -146.2413
105.477999 106.854 -146.6501
106.242336 106.861 -147.0603
107.012212 106.867 -147.4693
107.787666 106.874 -147.8722
108.568740 106.882 -148.2664
109.355474 106.891 -148.6542
110.147909 106.899 -149.0412
110.946086 106.907 -149.4315
111.750047 106.913 -149.8262
112.559834 106.917 -150.2257
113.375489 106.920 -150.6297
114.197055 106.922 -151.0355
115.024574 106.922 -151.4392
115.858089 106.921 -151.8380
116.697645 106.920 -152.2318
117.543284 106.919 -152.6221
118.395051 106.918 -153.0117
119.252990 106.917 -153.4032
120.117147 106.916 -153.7962
120.987565 106.915 -154.1873
121.864291 106.913 -154.5723
122.747370 106.910 -154.9499
123.636848 106.908 -155.3207
124.532771 106.906 -155.6843
125.435187 106.906 -156.0394
126.344142 106.906 -156.3864
127.259684 106.907 -156.7270
128.181860 106.908 -157.0630
129.110718 106.907 -157.3956
130.046308 106.905 -157.7268
130.988677 106.901 -158.0599
131.937875 106.895 -158.3979
132.893951 106.889 -158.7410
133.856956 106.882 -159.0873
134.826938 106.874 -159.4361
135.803950 106.864 -159.7871
136.788041 106.852 -160.1379
137.779264 106.839 -160.4832
138.777669 106.826 -160.8175
139.783309 106.813 -161.1389
140.796237 106.801 -161.4503
141.816504 106.789 -161.7559
142.844165 106.779 -162.0584
143.879273 106.769 -162.3586
144.921881 106.759 -162.6561
145.972045 106.749 -162.9494
147.029819 106.739 -163.2387
148.095257 106.729 -163.5261
149.168417 106.717 -163.8160
150.249353 106.705 -164.1114
151.338121 106.692 -164.4120
152.434780 106.679 -164.7142
153.539385 106.666 -165.0133
154.651995 106.652 -165.3068
155.772667 106.639 -165.5944
156.901460 106.625 -165.8772
158.038432 106.611 -166.1567
159.183644 106.596 -166.4341
160.337154 106.580 -166.7094
161.499023 106.564 -166.9826
162.669312 106.548 -167.2534
163.848081 106.531 -167.5210
165.035392 106.514 -167.7852
166.231306 106.497 -168.0457
167.435887 106.480 -168.3032
168.649196 106.462 -168.5579
169.871298 106.444 -168.8097
171.102255 106.426 -169.0583
172.342133 106.408 -169.3031
173.590995 106.389 -169.5442
174.848907 106.371 -169.7823
176.115934 106.354 -170.0182
177.392143 106.336 -170.2523
178.677599 106.318 -170.4852
179.972371 106.299 -170.7175
181.276525 106.281 -170.9495
182.590129 106.262 -171.1800
183.913252 106.243 -171.4073
185.245964 106.224 -171.6298
186.588332 106.204 -171.8466
187.940428 106.183 -172.0584
189.302322 106.163 -172.2665
190.674085 106.142 -172.4719
192.055788 106.122 -172.6743
193.447503 106.102 -172.8724
194.849303 106.081 -173.0642
196.261262 106.060 -173.2486
197.683452 106.039 -173.4258
199.115948 106.016 -173.5975
200.558824 105.992 -173.7656
202.012156 105.968 -173.9328
203.476019 105.944 -174.1011
204.950490 105.919 -174.2718
206.435646 105.895 -174.4436
207.931564 105.872 -174.6142
209.438322 105.849 -174.7815
210.955998 105.827 -174.9455
212.484672 105.805 -175.1065
214.024424 105.784 -175.2642
215.575333 105.762 -175.4177
217.137481 105.740 -175.5670
218.710948 105.718 -175.7119
220.295818 105.695 -175.8529
221.892172 105.671 -175.9905
223.500094 105.648 -176.1252
225.119668 105.624 -176.2568
226.750978 105.600 -176.3843
228.394109 105.576 -176.5070
230.049147 105.552 -176.6258
231.716178 105.528 -176.7432
233.395289 105.504 -176.8618
235.086567 105.480 -176.9819
236.790102 105.456 -177.0999
238.505980 105.431 -177.2112
240.234293 105.407 -177.3141
241.975130 105.382 -177.4100
243.728581 105.357 -177.5009
245.494739 105.333 -177.5879
247.273695 105.308 -177.6706
249.065542 105.283 -177.7482
250.870374 105.258 -177.8203
252.688284 105.233 -177.8866
254.519367 105.207 -177.9478
256.363720 105.181 -178.0053
258.221437 105.155 -178.0602
260.092616 105.130 -178.1119
261.977354 105.105 -178.1588
263.875750 105.081 -178.1996
265.787903 105.058 -178.2341
267.713911 105.036 -178.2622
269.653877 105.013 -178.2836
271.607900 104.991 -178.2968
273.576083 104.969 -178.2993
275.558528 104.947 -178.2872
277.555338 104.927 -178.2566
279.566619 104.909 -178.2061
281.592474 104.895 -178.1391
283.633009 104.886 -178.0638
285.688331 104.883 -177.9918
287.758546 104.887 -177.9366
289.843763 104.897 -177.9135
291.944090 104.912 -177.9377
294.059638 104.928 -178.0211
296.190515 104.941 -178.1690
298.336833 104.949 -178.3774
300.498705 104.948 -178.6322
302.676243 104.937 -178.9108
304.869559 104.916 -179.1884
307.078770 104.886 -179.4436
309.303989 104.851 -179.6631
311.545334 104.813 -179.8419
313.802919 104.773 -179.9818
316.076865 104.735 179.9119
318.367288 104.697 179.8321
320.674309 104.660 179.7732
322.998047 104.626 179.7325
325.338624 104.593 179.7079
327.696162 104.561 179.6954
330.070783 104.532 179.6879
332.462612 104.503 179.6802
334.871773 104.475 179.6715
337.298392 104.447 179.6637
339.742595 104.420 179.6584
342.204510 104.392 179.6562
344.684265 104.365 179.6564
347.181989 104.337 179.6584
349.697813 104.309 179.6638
352.231868 104.281 179.6767
354.784285 104.252 179.7000
357.355198 104.222 179.7341
359.944741 104.191 179.7784
362.553049 104.163 179.8301
365.180258 104.137 179.8850
367.826505 104.115 179.9393
370.491927 104.096 179.9911
373.176665 104.077 -179.9583
375.880856 104.058 -179.9069
378.604644 104.036 -179.8546
381.348169 104.013 -179.8028
384.111575 103.989 -179.7521
386.895006 103.965 -179.7023
389.698607 103.941 -179.6529
392.522524 103.916 -179.6047
395.366904 103.891 -179.5563
398.231895 103.864 -179.5011
401.117648 103.838 -179.4308
404.024312 103.812 -179.3443
406.952038 103.787 -179.2485
409.900981 103.764 -179.1516
412.871292 103.743 -179.0582
415.863128 103.723 -178.9689
418.876643 103.703 -178.8819
421.911996 103.683 -178.7944
424.969344 103.661 -178.7053
428.048847 103.638 -178.6139
431.150666 103.611 -178.5192
434.274961 103.583 -178.4215
437.421897 103.553 -178.3203
440.591636 103.525 -178.2121
443.784345 103.502 -178.0926
447.000189 103.485 -177.9618
450.239337 103.474 -177.8244
453.501956 103.467 -177.6853
456.788219 103.460 -177.5461
460.098294 103.453 -177.4077
463.432356 103.444 -177.2720
466.790578 103.435 -177.1419
470.173135 103.425 -177.0201
473.580203 103.416 -176.9058
477.011961 103.408 -176.7940
480.468586 103.401 -176.6795
483.950259 103.394 -176.5596
487.457163 103.388 -176.4369
490.989478 103.381 -176.3179
494.547390 103.373 -176.2076
498.131084 103.364 -176.1069
501.740748 103.353 -176.0140
505.376568 103.342 -175.9252
509.038735 103.330 -175.8376
512.727439 103.317 -175.7515
516.442874 103.303 -175.6682
520.185232 103.287 -175.5831
523.954708 103.271 -175.4861
527.751500 103.255 -175.3693
531.575805 103.240 -175.2327
535.427822 103.226 -175.0808
539.307753 103.214 -174.9179
543.215800 103.203 -174.7453
547.152165 103.193 -174.5626
551.117055 103.184 -174.3711
555.110677 103.175 -174.1748
559.133237 103.167 -173.9807
563.184947 103.160 -173.7953
567.266018 103.155 -173.6252
571.376661 103.151 -173.4724
575.517092 103.147 -173.3324
579.687526 103.142 -173.1973
583.888181 103.135 -173.0586
588.119275 103.128 -172.9113
592.381030 103.121 -172.7576
596.673667 103.115 -172.6034
600.997410 103.109 -172.4532
605.352485 103.103 -172.3085
609.739119 103.098 -172.1677
614.157540 103.093 -172.0281
618.607979 103.091 -171.8881
623.090667 103.089 -171.7475
627.605839 103.088 -171.6064
632.153730 103.086 -171.4674
636.734576 103.083 -171.3348
641.348617 103.079 -171.2101
645.996094 103.076 -171.0914
650.677248 103.073 -170.9742
655.392323 103.070 -170.8550
660.141566 103.067 -170.7332
664.925224 103.064 -170.6095
669.743546 103.061 -170.4845
674.596784 103.058 -170.3583
679.485191 103.055 -170.2314
684.409020 103.052 -170.1035
689.368530 103.049 -169.9732
694.363979 103.045 -169.8402
699.395626 103.041 -169.7055
704.463736 103.036 -169.5715
709.568570 103.032 -169.4415
714.710396 103.027 -169.3170
719.889483 103.021 -169.1965
725.106099 103.015 -169.0792
730.360516 103.008 -168.9654
735.653010 103.001 -168.8545
740.983855 102.995 -168.7441
746.353329 102.989 -168.6313
751.761713 102.984 -168.5140
757.209288 102.980 -168.3900
762.696339 102.975 -168.2571
768.223151 102.969 -168.1152
773.790013 102.962 -167.9679
779.397214 102.954 -167.8205
785.045047 102.945 -167.6767
790.733808 102.935 -167.5374
796.463791 102.926 -167.4012
802.235296 102.917 -167.2661
808.048623 102.909 -167.1297
813.904077 102.901 -166.9903
819.801961 102.893 -166.8476
825.742584 102.884 -166.6998
831.726255 102.875 -166.5436
837.753287 102.865 -166.3762
843.823992 102.854 -166.1978
849.938689 102.845 -166.0107
856.097695 102.836 -165.8179
862.301332 102.829 -165.6236
868.549922 102.822 -165.4328
874.843793 102.816 -165.2480
881.183272 102.809 -165.0670
887.568689 102.801 -164.8848
894.000378 102.791 -164.6960
900.478673 102.780 -164.4969
907.003913 102.768 -164.2864
913.576437 102.756 -164.0662
920.196588 102.744 -163.8389
926.864712 102.733 -163.6091
933.581156 102.722 -163.3811
940.346270 102.710 -163.1566
947.160407 102.698 -162.9359
954.023921 102.687 -162.7188
960.937172 102.676 -162.5047
967.900519 102.666 -162.2920
974.914325 102.655 -162.0781
981.978956 102.643 -161.8595
989.094780 102.632 -161.6335
996.262169 102.620 -161.3990
1003.481495 102.608 -161.1544
1010.753136 102.598 -160.8977
1018.077470 102.589 -160.6283
1025.454879 102.580 -160.3472
1032.885748 102.571 -160.0566
1040.370463 102.561 -159.7600
1047.909417 102.551 -159.4615
1055.503000 102.541 -159.1647
1063.151610 102.530 -158.8706
1070.855645 102.520 -158.5750
1078.615506 102.512 -158.2731
1086.431599 102.506 -157.9626
1094.304330 102.501 -157.6443
1102.234110 102.497 -157.3189
1110.221353 102.493 -156.9854
1118.266475 102.488 -156.6422
1126.369895 102.483 -156.2895
1134.532035 102.477 -155.9290
1142.753322 102.470 -155.5621
1151.034184 102.464 -155.1878
1159.375052 102.457 -154.8054
1167.776361 102.451 -154.4164
1176.238550 102.446 -154.0245
1184.762060 102.442 -153.6325
1193.347334 102.438 -153.2406
1201.994821 102.436 -152.8469
1210.704971 102.435 -152.4487
1219.478238 102.436 -152.0437
1228.315080 102.439 -151.6296
1237.215957 102.442 -151.2071
1246.181334 102.446 -150.7799
1255.211678 102.451 -150.3519
1264.307459 102.457 -149.9230
1273.469152 102.464 -149.4897
1282.697235 102.471 -149.0485
1291.992188 102.478 -148.5992
1301.354495 102.484 -148.1432
1310.784647 102.490 -147.6813
1320.283132 102.495 -147.2131
1329.850448 102.502 -146.7383
1339.487093 102.510 -146.2567
1349.193569 102.520 -145.7673
1358.970381 102.532 -145.2700
1368.818041 102.546 -144.7664
1378.737061 102.561 -144.2592
1388.727958 102.577 -143.7498
1398.791253 102.594 -143.2374
1408.927471 102.612 -142.7197
1419.137140 102.631 -142.1939
1429.420793 102.651 -141.6590
1439.778965 102.672 -141.1168
1450.212197 102.694 -140.5715
1460.721033 102.716 -140.0254
1471.306019 102.738 -139.4776
1481.967709 102.761 -138.9253
1492.706658 102.784 -138.3651
1503.523426 102.809 -137.7938
1514.418576 102.835 -137.2098
1525.392678 102.862 -136.6136
1536.446302 102.891 -136.0068
1547.580025 102.921 -135.3910
1558.794428 102.952 -134.7664
1570.090095 102.984 -134.1304
1581.467615 103.018 -133.4795
1592.927581 103.054 -132.8127
1604.470591 103.092 -132.1324
1616.097246 103.132 -131.4415
1627.808153 103.174 -130.7400
1639.603922 103.217 -130.0248
1651.485168 103.262 -129.2920
1663.452510 103.308 -128.5401
1675.506573 103.357 -127.7706
1687.647984 103.409 -126.9857
1699.877377 103.464 -126.1852
1712.195390 103.521 -125.3663
1724.602663 103.582 -124.5251
1737.099845 103.648 -123.6582
1749.687587 103.718 -122.7649
1762.366544 103.793 -121.8487
1775.137379 103.875 -120.9166
1788.000756 103.964 -119.9741
1800.957346 104.060 -119.0214
1814.007826 104.164 -118.0548
1827.152874 104.277 -117.0723
1840.393177 104.399 -116.0764
1853.729425 104.530 -115.0726
1867.162312 104.671 -114.0648
1880.692540 104.823 -113.0557
1894.320813 104.986 -112.0514
1908.047843 105.161 -111.0638
1921.874344 105.347 -110.1060
1935.801038 105.543 -109.1830
1949.828650 105.750 -108.2964
1963.957912 105.966 -107.4536
1978.189561 106.191 -106.6667
1992.524338 106.425 -105.9440
2006.962991 106.666 -105.2841
2021.506272 106.914 -104.6811
2036.154940 107.170 -104.1333
2050.909758 107.434 -103.6482
2065.771495 107.706 -103.2398
2080.740927 107.985 -102.9196
2095.818833 108.267 -102.6931
2111.006001 108.553 -102.5628
2126.303220 108.841 -102.5298
2141.711290 109.128 -102.5902
2157.231013 109.415 -102.7331
2172.863198 109.700 -102.9490
2188.608660 109.986 -103.2372
2204.468221 110.273 -103.6040
2220.442706 110.558 -104.0549
2236.532950 110.842 -104.5898
2252.739789 111.124 -105.2052
2269.064070 111.403 -105.9025
2285.506644 111.679 -106.6857
2302.068367 111.950 -107.5539
2318.750104 112.215 -108.5011
2335.552723 112.473 -109.5240
2352.477101 112.725 -110.6244
2369.524119 112.969 -111.8019
2386.694668 113.206 -113.0524
2403.989641 113.433 -114.3720
2421.409941 113.653 -115.7605
2438.956476 113.863 -117.2192
2456.630160 114.063 -118.7463
2474.431915 114.251 -120.3374
2492.362668 114.428 -121.9893
2510.423356 114.591 -123.6987
2528.614918 114.741 -125.4598
2546.938304 114.876 -127.2658
2565.394469 114.996 -129.1101
2583.984375 115.100 -130.9866
2602.708991 115.188 -132.8879
2621.569293 115.260 -134.8056
2640.566265 115.316 -136.7324
2659.700897 115.355 -138.6617
2678.974186 115.378 -140.5862
2698.387137 115.384 -142.4980
2717.940763 115.374 -144.3880
2737.636082 115.346 -146.2472
2757.474121 115.303 -148.0659
2777.455915 115.245 -149.8338
2797.582506 115.171 -151.5412
2817.854942 115.085 -153.1781
2838.274281 114.985 -154.7354
2858.841586 114.876 -156.2060
2879.557931 114.758 -157.5859
2900.424394 114.635 -158.8762
2921.442065 114.508 -160.0820
2942.612039 114.378 -161.2114
2963.935418 114.248 -162.2729
2985.413316 114.116 -163.2737
3007.046852 113.983 -164.2185
3028.837153 113.848 -165.1100
3050.785356 113.712 -165.9500
3072.892604 113.575 -166.7397
3095.160050 113.436 -167.4801
3117.588856 113.296 -168.1714
3140.180190 113.155 -168.8133
3162.935230 113.014 -169.4052
3185.855163 112.872 -169.9477
3208.941182 112.731 -170.4424
3232.194493 112.591 -170.8917
3255.616307 112.452 -171.2986
3279.207844 112.315 -171.6663
3302.970336 112.179 -171.9978
3326.905021 112.045 -172.2961
3351.013146 111.913 -172.5629
3375.295969 111.781 -172.7997
3399.754755 111.651 -173.0073
3424.390779 111.523 -173.1859
3449.205326 111.395 -173.3354
3474.199690 111.268 -173.4557
3499.375173 111.142 -173.5464
3524.733088 111.017 -173.6076
3550.274757 110.894 -173.6391
3576.001511 110.771 -173.6410
3601.914692 110.649 -173.6127
3628.015651 110.529 -173.5539
3654.305748 110.411 -173.4639
3680.786354 110.295 -173.3428
3707.458849 110.181 -173.1917
3734.324624 110.070 -173.0131
3761.385080 109.962 -172.8103
3788.641627 109.858 -172.5863
3816.095686 109.756 -172.3432
3843.748688 109.657 -172.0815
3871.602076 109.561 -171.8013
3899.657300 109.467 -171.5025
3927.915825 109.376 -171.1853
3956.379122 109.287 -170.8500
3985.048676 109.201 -170.4973
4013.925981 109.118 -170.1276
4043.012544 109.038 -169.7416
4072.309879 108.962 -169.3402
4101.819515 108.888 -168.9250
4131.542990 108.818 -168.4983
4161.481854 108.751 -168.0635
4191.637667 108.688 -167.6240
4222.012001 108.628 -167.1829
4252.606441 108.569 -166.7418
4283.422580 108.513 -166.3010
4314.462026 108.458 -165.8595
4345.726396 108.404 -165.4157
4377.217321 108.350 -164.9671
4408.936442 108.297 -164.5111
4440.885413 108.245 -164.0446
4473.065899 108.193 -163.5647
4505.479579 108.142 -163.0696
4538.128141 108.093 -162.5588
4571.013288 108.045 -162.0333
4604.136735 108.000 -161.4948
4637.500207 107.955 -160.9447
4671.105446 107.913 -160.3832
4704.954201 107.871 -159.8095
4739.048239 107.831 -159.2217
4773.389336 107.792 -158.6171
4807.979283 107.753 -157.9928
4842.819883 107.716 -157.3456
4877.912952 107.681 -156.6722
4913.260320 107.648 -155.9703
4948.863830 107.619 -155.2388
4984.725337 107.593 -154.4787
5020.846712 107.573 -153.6926
5057.229836 107.558 -152.8846
5093.876609 107.548 -152.0589
5130.788938 107.544 -151.2193
5167.968750 107.546 -150.3689
5205.417982 107.553 -149.5096
5243.138586 107.566 -148.6430
5281.132530 107.584 -147.7702
5319.401793 107.607 -146.8909
5357.948371 107.635 -146.0034
5396.774274 107.669 -145.1052
5435.881525 107.708 -144.1939
5475.272163 107.753 -143.2688
5514.948243 107.804 -142.3306
5554.911831 107.863 -141.3808
5595.165012 107.931 -140.4216
5635.709884 108.006 -139.4560
5676.548561 108.091 -138.4884
5717.683172 108.186 -137.5240
5759.115861 108.291 -136.5681
5800.848789 108.406 -135.6260
5842.884130 108.530 -134.7027
5885.224077 108.666 -133.8034
5927.870837 108.811 -132.9333
5970.826633 108.967 -132.0979
6014.093704 109.134 -131.3032
6057.674306 109.311 -130.5559
6101.570711 109.497 -129.8631
6145.785208 109.694 -129.2313
6190.320101 109.900 -128.6661
6235.177712 110.115 -128.1723
6280.360380 110.339 -127.7542
6325.870460 110.571 -127.4167
6371.710325 110.811 -127.1648
6417.882365 111.058 -127.0042
6464.388986 111.313 -126.9422
6511.232613 111.576 -126.9886
6558.415689 111.844 -127.1560
6605.940673 112.116 -127.4584
6653.810042 112.391 -127.9079
6702.026292 112.664 -128.5132
6750.591937 112.932 -129.2773
6799.509509 113.192 -130.1967
6848.781558 113.440 -131.2587
6898.410653 113.674 -132.4417
6948.399380 113.894 -133.7192
6998.750346 114.105 -135.0716
7049.466176 114.309 -136.5024
7100.549514 114.510 -138.0475
7152.003023 114.703 -139.7585
7203.829385 114.878 -141.6662
7256.031302 115.024 -143.7599
7308.611496 115.131 -145.9954
7361.572708 115.195 -148.3116
7414.917698 115.215 -150.6442
7468.649249 115.191 -152.9336
7522.770160 115.129 -155.1291
7577.283253 115.033 -157.1919
7632.191371 114.911 -159.0969
7687.497376 114.768 -160.8325
7743.204151 114.611 -162.4002
7799.314600 114.446 -163.8111
7855.831649 114.275 -165.0820
7912.758244 114.101 -166.2310
7970.097352 113.925 -167.2731
8027.851962 113.746 -168.2169
8086.025087 113.563 -169.0639
8144.619758 113.376 -169.8100
8203.639030 113.186 -170.4475
8263.085980 112.993 -170.9680
8322.963708 112.800 -171.3649
8383.275334 112.608 -171.6346
8444.024002 112.421 -171.7776
8505.212881 112.242 -171.7977
8566.845160 112.073 -171.7024
8628.924051 111.916 -171.5021
8691.452792 111.773 -171.2092
8754.434642 111.648 -170.8381
8817.872884 111.540 -170.4048
8881.770826 111.452 -169.9266
8946.131799 111.384 -169.4223
9010.959157 111.337 -168.9118
9076.256282 111.312 -168.4164
9142.026576 111.309 -167.9585
9208.273470 111.326 -167.5616
9275.000415 111.364 -167.2503
9342.210891 111.421 -167.0493
9409.908403 111.494 -166.9829
9478.096478 111.581 -167.0739
9546.778672 111.678 -167.3423
9615.958566 111.780 -167.8044
9685.639765 111.883 -168.4717
9755.825904 111.981 -169.3495
9826.520640 112.069 -170.4371
9897.727659 112.141 -171.7283
9969.450674 112.192 -173.2123
10041.693423 112.219 -174.8757
10114.459673 112.217 -176.7045
10187.753217 112.181 -178.6858
10261.577877 112.107 179.1926
10335.937500 111.989 176.9447
10410.835964 111.819 174.5912
10486.277173 111.588 172.1688
10562.265060 111.284 169.7416
10638.803587 110.894 167.4174
10715.896743 110.409 165.3688
10793.548548 109.822 163.8671
10871.763050 109.140 163.3317
10950.544327 108.398 164.3903
11029.896485 107.682 167.8777
11109.823662 107.141 174.5093
11190.330024 106.955 -176.1653
11271.419768 107.208 -166.6660
11353.097122 107.798 -159.9247
11435.366344 108.519 -156.8990
11518.231722 109.188 -156.8777
11601.697577 109.705 -158.7369
11685.768261 110.036 -161.5160
11770.448155 110.192 -164.5215
11855.741674 110.206 -167.2980
11941.653265 110.121 -169.5774
12028.187408 109.983 -171.2348
12115.348612 109.834 -172.2556
12203.141422 109.712 -172.7129
12291.570415 109.647 -172.7519
12380.640201 109.658 -172.5686
12470.355424 109.748 -172.3776
12560.720760 109.909 -172.3689
12651.740920 110.124 -172.6727
12743.420650 110.376 -173.3483
12835.764729 110.652 -174.4046
12928.777972 110.947 -175.8365
13022.465227 111.259 -177.6551
13116.831378 111.588 -179.9034
13211.881345 111.929 177.3483
13307.620084 112.270 174.0178
13404.052584 112.589 170.0341
13501.183875 112.859 165.3622
13599.019019 113.048 160.0225
13697.563116 113.123 154.1045
13796.821305 113.054 147.7679
13896.798760 112.822 141.2300
13997.500692 112.416 134.7402
14098.932352 111.841 128.5461
14201.099028 111.108 122.8647
14304.006046 110.240 117.8652
14407.658770 109.262 113.6633
14512.062604 108.200 110.3228
14617.222992 107.083 107.8605
14723.145416 105.937 106.2543
14829.835397 104.784 105.4504
14937.298497 103.647 105.3719
15045.540320 102.540 105.9264
15154.566507 101.476 107.0159
15264.382743 100.462 108.5474
15374.994752 99.501 110.4416
15486.408302 98.595 112.6359
15598.629201 97.742 115.0841
15711.663298 96.942 117.7531
15825.516487 96.190 120.6201
15940.194703 95.487 123.6699
16055.703925 94.832 126.8892
16172.050174 94.225 130.2592
16289.239516 93.668 133.7477
16407.278061 93.163 137.3063
16526.171961 92.708 140.8788
16645.927415 92.300 144.4209
16766.550667 91.934 147.9203
16888.048005 91.604 151.3976
17010.425762 91.310 154.8862
17133.690320 91.056 158.4084
17257.848103 90.847 161.9607
17382.905584 90.690 165.5102
17508.869284 90.593 168.9969
17635.745768 90.560 172.3375
17763.541652 90.594 175.4301
17892.263597 90.695 178.1583
18021.918315 90.857 -179.6046
18152.512564 91.070 -177.9895
18284.053153 91.317 -177.1223
18416.546939 91.575 -177.1078
18550.000830 91.810 -178.0075
18684.421783 91.984 -179.8178
18819.816805 92.059 177.5456
18956.192956 91.998 174.2524
19093.557344 91.771 170.5491
19231.917131 91.367 166.7347
19371.279531 90.794 163.1221
19511.651807 90.090 159.9946
19653.041280 89.336 157.5675
19795.455318 88.668 155.9594
19938.901348 88.264 155.1886
