* Measurement data measured by REW V5.31.3
* Source: Input device not selected, no input selected, L, volume: no control
* Format: 256k Log Swept Sine, 1 sweep at -20,0 dBFS with no timing reference
* Dated: 09.02.2025 20:28:04
* REW Settings:
*  C-weighting compensation: Off
*  Target level: 75.0 dB
* Note: 
* Measurement: Panda
* Smoothing: 1/12 octave
* Frequency Step: 96 ppo
* Start Frequency: 20.141602 Hz
*
* Freq(Hz) SPL(dB) Phase(degrees)
20.141602 82.386 -72.2326
20.287556 82.397 -72.2690
20.434568 82.417 -72.3137
20.582645 82.449 -72.3605
20.731796 82.496 -72.4200
20.882027 82.562 -72.5211
21.033346 82.647 -72.7038
21.185763 82.751 -73.0095
21.339284 82.869 -73.4705
21.493917 82.994 -74.1003
21.649671 83.118 -74.8897
21.806553 83.234 -75.8062
21.964572 83.335 -76.7951
22.123737 83.416 -77.7865
22.284054 83.476 -78.7008
22.445534 83.516 -79.4571
22.608183 83.542 -79.9827
22.772012 83.561 -80.2218
22.937027 83.584 -80.1452
23.103238 83.620 -79.7581
23.270654 83.678 -79.1028
23.439282 83.764 -78.2557
23.609133 83.878 -77.3152
23.780215 84.015 -76.3844
23.952536 84.164 -75.5545
24.126106 84.315 -74.8908
24.300934 84.455 -74.4293
24.477028 84.575 -74.1783
24.654399 84.668 -74.1260
24.833055 84.731 -74.2499
25.013005 84.766 -74.5250
25.194260 84.778 -74.9305
25.376828 84.772 -75.4536
25.560719 84.756 -76.0897
25.745942 84.737 -76.8394
25.932508 84.721 -77.7019
26.120426 84.710 -78.6684
26.309705 84.704 -79.7152
26.500356 84.702 -80.7998
26.692388 84.701 -81.8616
26.885812 84.701 -82.8268
27.080638 84.701 -83.6179
27.276876 84.704 -84.1652
27.474535 84.715 -84.4208
27.673627 84.741 -84.3697
27.874161 84.790 -84.0372
28.076149 84.863 -83.4881
28.279600 84.961 -82.8158
28.484526 85.079 -82.1234
28.690937 85.205 -81.5036
28.898843 85.330 -81.0218
29.108256 85.442 -80.7094
29.319186 85.532 -80.5653
29.531645 85.598 -80.5645
29.745644 85.639 -80.6691
29.961193 85.661 -80.8393
30.178304 85.672 -81.0425
30.396989 85.683 -81.2582
30.617258 85.701 -81.4797
30.839123 85.734 -81.7104
31.062596 85.785 -81.9578
31.287688 85.852 -82.2278
31.514412 85.933 -82.5193
31.742778 86.021 -82.8245
31.972800 86.113 -83.1304
32.204488 86.203 -83.4236
32.437855 86.289 -83.6946
32.672913 86.368 -83.9403
32.909674 86.440 -84.1639
33.148151 86.505 -84.3731
33.388356 86.564 -84.5765
33.630302 86.617 -84.7805
33.874001 86.667 -84.9877
34.119466 86.715 -85.1968
34.366710 86.764 -85.4040
34.615745 86.817 -85.6054
34.866585 86.876 -85.7982
35.119243 86.940 -85.9805
35.373731 87.009 -86.1507
35.630064 87.080 -86.3055
35.888254 87.152 -86.4397
36.148315 87.223 -86.5469
36.410261 87.291 -86.6220
36.674104 87.356 -86.6641
36.939860 87.421 -86.6793
37.207542 87.487 -86.6803
37.477163 87.555 -86.6845
37.748738 87.626 -86.7094
38.022281 87.698 -86.7687
38.297806 87.770 -86.8684
38.575327 87.840 -87.0067
38.854860 87.907 -87.1749
39.136419 87.968 -87.3601
39.420017 88.024 -87.5468
39.705671 88.074 -87.7184
39.993395 88.118 -87.8579
40.283203 88.157 -87.9500
40.575112 88.196 -87.9852
40.869136 88.239 -87.9658
41.165290 88.289 -87.9110
41.463591 88.349 -87.8567
41.764053 88.420 -87.8480
42.066693 88.498 -87.9260
42.371525 88.575 -88.1121
42.678567 88.647 -88.3994
42.987834 88.710 -88.7545
43.299341 88.765 -89.1287
43.613106 88.815 -89.4738
43.929145 88.867 -89.7552
44.247473 88.924 -89.9570
44.568109 88.988 -90.0783
44.891068 89.055 -90.1272
45.216367 89.121 -90.1198
45.544023 89.180 -90.0885
45.874054 89.230 -90.0909
46.206476 89.264 -90.2078
46.541307 89.276 -90.5215
46.878565 89.255 -91.0759
47.218266 89.193 -91.8369
47.560429 89.088 -92.6750
47.905072 88.956 -93.3866
48.252212 88.829 -93.7572
48.601867 88.753 -93.6564
48.954056 88.770 -93.1167
49.308798 88.896 -92.3361
49.666109 89.111 -91.5775
50.026010 89.370 -91.0343
50.388520 89.625 -90.7632
50.753656 89.845 -90.7098
51.121437 90.017 -90.7793
51.491884 90.148 -90.8969
51.865016 90.250 -91.0326
52.240851 90.337 -91.1913
52.619410 90.417 -91.3878
53.000712 90.494 -91.6263
53.384777 90.570 -91.8983
53.771625 90.645 -92.1916
54.161276 90.716 -92.4971
54.553751 90.780 -92.8070
54.949070 90.837 -93.1078
55.347254 90.886 -93.3779
55.748323 90.931 -93.5928
56.152298 90.978 -93.7363
56.559201 91.029 -93.8072
56.969052 91.088 -93.8191
57.381873 91.152 -93.7959
57.797686 91.221 -93.7671
58.216512 91.289 -93.7637
58.638373 91.357 -93.8105
59.063291 91.420 -93.9162
59.491288 91.480 -94.0682
59.922386 91.539 -94.2403
60.356608 91.601 -94.4122
60.793977 91.668 -94.5823
61.234515 91.739 -94.7626
61.678246 91.806 -94.9559
62.125192 91.864 -95.1392
62.575377 91.911 -95.2733
63.028824 91.957 -95.3358
63.485557 92.012 -95.3481
63.945599 92.084 -95.3681
64.408975 92.172 -95.4492
64.875709 92.267 -95.5996
65.345825 92.360 -95.7770
65.819348 92.444 -95.9200
66.296302 92.515 -95.9887
66.776713 92.573 -95.9842
67.260604 92.618 -95.9430
67.748002 92.654 -95.9165
68.238932 92.685 -95.9492
68.733420 92.719 -96.0619
69.231490 92.762 -96.2428
69.733170 92.818 -96.4531
70.238485 92.885 -96.6474
70.747463 92.962 -96.7963
71.260128 93.039 -96.8972
71.776508 93.111 -96.9674
72.296630 93.173 -97.0288
72.820521 93.227 -97.0973
73.348209 93.277 -97.1812
73.879720 93.331 -97.2820
74.415083 93.391 -97.3947
74.954326 93.456 -97.5096
75.497475 93.522 -97.6180
76.044561 93.586 -97.7183
76.595612 93.646 -97.8182
77.150655 93.703 -97.9302
77.709720 93.759 -98.0666
78.272837 93.818 -98.2357
78.840034 93.879 -98.4382
79.411342 93.942 -98.6650
79.986789 94.005 -98.8973
80.566406 94.066 -99.1144
81.150224 94.129 -99.3040
81.738272 94.194 -99.4668
82.330581 94.262 -99.6129
82.927182 94.333 -99.7549
83.528107 94.403 -99.8997
84.133386 94.472 -100.0445
84.743051 94.538 -100.1786
85.357134 94.602 -100.2910
85.975667 94.665 -100.3797
86.598682 94.728 -100.4551
87.226212 94.787 -100.5359
87.858289 94.842 -100.6391
88.494946 94.892 -100.7752
89.136217 94.939 -100.9459
89.782135 94.986 -101.1470
90.432733 95.038 -101.3722
91.088046 95.098 -101.6157
91.748108 95.165 -101.8710
92.412952 95.238 -102.1280
93.082615 95.314 -102.3727
93.757130 95.389 -102.5941
94.436533 95.460 -102.7896
95.120859 95.528 -102.9640
95.810144 95.593 -103.1238
96.504423 95.661 -103.2724
97.203734 95.735 -103.4075
97.908112 95.813 -103.5221
98.617595 95.892 -103.6099
99.332219 95.966 -103.6754
100.052021 96.035 -103.7381
100.777039 96.100 -103.8240
101.507311 96.165 -103.9454
102.242875 96.230 -104.0918
102.983769 96.298 -104.2418
103.730032 96.370 -104.3826
104.481702 96.444 -104.5150
105.238820 96.519 -104.6432
106.001424 96.591 -104.7708
106.769554 96.658 -104.9072
107.543250 96.719 -105.0678
108.322553 96.773 -105.2619
109.107503 96.824 -105.4840
109.898141 96.874 -105.7171
110.694508 96.927 -105.9442
111.496646 96.983 -106.1585
112.304596 97.043 -106.3653
113.118402 97.106 -106.5751
113.938104 97.172 -106.7959
114.763747 97.241 -107.0309
115.595372 97.309 -107.2778
116.433024 97.376 -107.5300
117.276746 97.440 -107.7800
118.126581 97.502 -108.0231
118.982575 97.564 -108.2579
119.844772 97.626 -108.4848
120.713217 97.689 -108.7045
121.587954 97.751 -108.9130
122.469031 97.815 -109.1009
123.356492 97.881 -109.2616
124.250384 97.950 -109.4024
125.150753 98.020 -109.5453
126.057647 98.091 -109.7135
126.971113 98.160 -109.9171
127.891198 98.228 -110.1498
128.817950 98.293 -110.3931
129.751418 98.356 -110.6188
130.691651 98.417 -110.7968
131.638696 98.479 -110.9090
132.592604 98.542 -110.9618
133.553425 98.607 -110.9842
134.521208 98.673 -111.0186
135.496004 98.740 -111.1125
136.477864 98.810 -111.3057
137.466839 98.881 -111.6063
138.462981 98.953 -111.9830
139.466340 99.024 -112.3896
140.476971 99.092 -112.7891
141.494925 99.158 -113.1576
142.520256 99.223 -113.4807
143.553016 99.286 -113.7552
144.593260 99.349 -113.9884
145.641043 99.412 -114.1944
146.696418 99.475 -114.3890
147.759441 99.541 -114.5879
148.830166 99.607 -114.8033
149.908651 99.674 -115.0402
150.994951 99.741 -115.2968
152.089123 99.808 -115.5678
153.191223 99.874 -115.8483
154.301310 99.941 -116.1372
155.419441 100.006 -116.4369
156.545674 100.070 -116.7490
157.680069 100.132 -117.0682
158.822683 100.194 -117.3864
159.973578 100.256 -117.6987
161.132813 100.317 -118.0045
162.300447 100.379 -118.3053
163.476543 100.441 -118.6040
164.661162 100.503 -118.9047
165.854364 100.566 -119.2116
167.056213 100.629 -119.5270
168.266772 100.693 -119.8501
169.486102 100.758 -120.1787
170.714268 100.824 -120.5118
171.951334 100.889 -120.8506
173.197364 100.954 -121.1968
174.452424 101.017 -121.5515
175.716578 101.080 -121.9140
176.989893 101.143 -122.2816
178.272434 101.205 -122.6506
179.564270 101.267 -123.0174
180.865467 101.328 -123.3804
182.176092 101.388 -123.7410
183.496216 101.448 -124.1028
184.825905 101.507 -124.4698
186.165229 101.566 -124.8443
187.514259 101.625 -125.2268
188.873065 101.683 -125.6170
190.241717 101.740 -126.0144
191.620287 101.797 -126.4189
193.008847 101.852 -126.8297
194.407468 101.906 -127.2455
195.816225 101.959 -127.6647
197.235190 102.011 -128.0847
198.664438 102.063 -128.5039
200.104042 102.115 -128.9219
201.554078 102.169 -129.3400
203.014622 102.224 -129.7607
204.485750 102.279 -130.1863
205.967538 102.333 -130.6178
207.460064 102.386 -131.0548
208.963405 102.439 -131.4976
210.477640 102.490 -131.9469
212.002848 102.541 -132.4023
213.539108 102.591 -132.8625
215.086500 102.640 -133.3267
216.645105 102.688 -133.7951
218.215005 102.735 -134.2672
219.796281 102.780 -134.7425
221.389015 102.825 -135.2213
222.993292 102.869 -135.7057
224.609193 102.913 -136.1963
226.236804 102.956 -136.6917
227.876209 102.998 -137.1890
229.527494 103.038 -137.6868
231.190745 103.077 -138.1847
232.866048 103.114 -138.6833
234.553491 103.150 -139.1823
236.253163 103.185 -139.6811
237.965150 103.220 -140.1804
239.689544 103.255 -140.6826
241.426433 103.291 -141.1905
243.175909 103.326 -141.7050
244.938062 103.361 -142.2251
246.712984 103.395 -142.7490
248.500768 103.429 -143.2747
250.301507 103.463 -143.8008
252.115295 103.495 -144.3280
253.942226 103.525 -144.8590
255.782396 103.553 -145.3943
257.635901 103.579 -145.9324
259.502837 103.604 -146.4731
261.383301 103.627 -147.0180
263.277392 103.649 -147.5674
265.185209 103.670 -148.1205
267.106850 103.689 -148.6772
269.042417 103.707 -149.2389
270.992009 103.722 -149.8076
272.955729 103.736 -150.3840
274.933678 103.749 -150.9657
276.925961 103.760 -151.5497
278.932681 103.769 -152.1346
280.953942 103.776 -152.7210
282.989850 103.782 -153.3103
285.040511 103.785 -153.9034
287.106032 103.787 -154.5013
289.186521 103.786 -155.1039
291.282086 103.783 -155.7088
293.392836 103.776 -156.3091
295.518881 103.767 -156.8946
297.660333 103.754 -157.4552
299.817302 103.739 -157.9856
301.989902 103.720 -158.4865
304.178245 103.700 -158.9652
306.382446 103.680 -159.4305
308.602620 103.662 -159.8870
310.838882 103.647 -160.3344
313.091348 103.635 -160.7697
315.360137 103.625 -161.1931
317.645367 103.616 -161.6092
319.947156 103.607 -162.0269
322.265625 103.596 -162.4551
324.600895 103.584 -162.8983
326.953086 103.570 -163.3541
329.322323 103.554 -163.8158
331.708729 103.536 -164.2784
334.112427 103.517 -164.7402
336.533543 103.496 -165.2022
338.972204 103.477 -165.6668
341.428536 103.459 -166.1356
343.902668 103.443 -166.6087
346.394729 103.429 -167.0856
348.904848 103.414 -167.5691
351.433156 103.396 -168.0658
353.979786 103.373 -168.5817
356.544869 103.344 -169.1166
359.128540 103.308 -169.6627
361.730934 103.267 -170.2064
364.352185 103.220 -170.7343
366.992431 103.166 -171.2374
369.651810 103.106 -171.7086
372.330459 103.041 -172.1412
375.028519 102.972 -172.5277
377.746130 102.900 -172.8630
380.483434 102.827 -173.1432
383.240574 102.755 -173.3665
386.017693 102.686 -173.5358
388.814937 102.622 -173.6615
391.632450 102.565 -173.7606
394.470380 102.516 -173.8492
397.328875 102.475 -173.9371
400.208084 102.440 -174.0274
403.108157 102.408 -174.1190
406.029245 102.378 -174.2086
408.971500 102.348 -174.2974
411.935076 102.319 -174.3936
414.920127 102.290 -174.5071
417.926810 102.263 -174.6464
420.955280 102.238 -174.8155
424.005695 102.213 -175.0095
427.078215 102.188 -175.2144
430.173000 102.160 -175.4156
433.290211 102.131 -175.6056
436.430010 102.099 -175.7874
439.592562 102.065 -175.9689
442.778031 102.028 -176.1573
445.986583 101.988 -176.3603
449.218386 101.944 -176.5852
452.473607 101.896 -176.8281
455.752418 101.847 -177.0723
459.054987 101.797 -177.2976
462.381489 101.747 -177.4872
465.732096 101.696 -177.6290
469.106983 101.644 -177.7196
472.506325 101.589 -177.7637
475.930301 101.531 -177.7675
479.379088 101.472 -177.7351
482.852867 101.413 -177.6673
486.351817 101.357 -177.5620
489.876123 101.304 -177.4165
493.425968 101.257 -177.2316
497.001536 101.217 -177.0141
500.603014 101.185 -176.7738
504.230589 101.162 -176.5198
507.884452 101.148 -176.2632
511.564792 101.144 -176.0187
515.271802 101.149 -175.8027
519.005673 101.162 -175.6311
522.766602 101.181 -175.5190
526.554785 101.204 -175.4782
530.370418 101.227 -175.5128
534.213700 101.248 -175.6177
538.084833 101.264 -175.7825
541.984018 101.272 -175.9949
545.911457 101.274 -176.2413
549.867357 101.268 -176.5071
553.851922 101.258 -176.7784
557.865362 101.244 -177.0458
561.907884 101.226 -177.3075
565.979700 101.202 -177.5624
570.081022 101.172 -177.8046
574.212064 101.137 -178.0268
578.373042 101.097 -178.2226
582.564171 101.053 -178.3860
586.785671 101.005 -178.5128
591.037762 100.956 -178.6019
595.320665 100.905 -178.6548
599.634604 100.854 -178.6750
603.979804 100.804 -178.6641
608.356491 100.755 -178.6179
612.764893 100.707 -178.5317
617.205240 100.660 -178.4039
621.677763 100.615 -178.2360
626.182696 100.574 -178.0290
630.720274 100.540 -177.7839
635.290733 100.514 -177.5053
639.894312 100.498 -177.2054
644.531250 100.491 -176.9036
649.201789 100.495 -176.6221
653.906173 100.509 -176.3790
658.644647 100.529 -176.1871
663.417457 100.555 -176.0544
668.224854 100.584 -175.9841
673.067086 100.612 -175.9747
677.944408 100.637 -176.0217
682.857073 100.659 -176.1187
687.805336 100.676 -176.2560
692.789457 100.688 -176.4201
697.809695 100.695 -176.5969
702.866312 100.697 -176.7741
707.959571 100.694 -176.9430
713.089738 100.685 -177.0990
718.257080 100.673 -177.2398
723.461867 100.657 -177.3640
728.704370 100.638 -177.4691
733.984862 100.617 -177.5520
739.303619 100.593 -177.6146
744.660918 100.564 -177.6669
750.057038 100.533 -177.7228
755.492260 100.499 -177.7896
760.966869 100.467 -177.8655
766.481148 100.438 -177.9469
772.035387 100.415 -178.0292
777.629873 100.394 -178.1055
783.264900 100.375 -178.1694
788.940760 100.355 -178.2168
794.657750 100.333 -178.2467
800.416168 100.309 -178.2628
806.216313 100.285 -178.2724
812.058489 100.259 -178.2799
817.943000 100.232 -178.2846
823.870152 100.204 -178.2843
829.840255 100.176 -178.2792
835.853619 100.150 -178.2719
841.910559 100.125 -178.2620
848.011390 100.100 -178.2471
854.156430 100.075 -178.2231
860.346000 100.050 -178.1879
866.580422 100.022 -178.1421
872.860020 99.993 -178.0877
879.185124 99.962 -178.0288
885.556062 99.929 -177.9718
891.973166 99.896 -177.9207
898.436771 99.865 -177.8698
904.947215 99.835 -177.8078
911.504835 99.808 -177.7280
918.109975 99.783 -177.6335
924.762978 99.760 -177.5321
931.464192 99.737 -177.4264
938.213966 99.715 -177.3132
945.012651 99.692 -177.1882
951.860602 99.670 -177.0492
958.758176 99.648 -176.8979
965.705733 99.626 -176.7388
972.703635 99.602 -176.5796
979.752246 99.579 -176.4298
986.851935 99.556 -176.2962
994.003071 99.534 -176.1790
1001.206027 99.514 -176.0707
1008.461179 99.493 -175.9604
1015.768904 99.472 -175.8351
1023.129584 99.450 -175.6841
1030.543603 99.429 -175.5058
1038.011347 99.407 -175.3075
1045.533205 99.387 -175.0973
1053.109569 99.369 -174.8802
1060.740836 99.353 -174.6596
1068.427401 99.338 -174.4371
1076.169666 99.322 -174.2134
1083.968035 99.306 -173.9879
1091.822915 99.288 -173.7598
1099.734713 99.272 -173.5288
1107.703844 99.256 -173.2955
1115.730723 99.244 -173.0610
1123.815768 99.233 -172.8271
1131.959400 99.224 -172.5938
1140.162045 99.217 -172.3585
1148.424129 99.210 -172.1174
1156.746083 99.204 -171.8696
1165.128342 99.198 -171.6183
1173.571343 99.193 -171.3655
1182.075524 99.190 -171.1094
1190.641331 99.188 -170.8473
1199.269209 99.187 -170.5775
1207.959608 99.187 -170.3006
1216.712981 99.189 -170.0208
1225.529785 99.192 -169.7440
1234.410479 99.198 -169.4743
1243.355526 99.204 -169.2139
1252.365393 99.210 -168.9653
1261.440549 99.217 -168.7282
1270.581467 99.224 -168.4961
1279.788624 99.233 -168.2608
1289.062500 99.242 -168.0190
1298.403578 99.252 -167.7735
1307.812346 99.262 -167.5283
1317.289293 99.274 -167.2851
1326.834914 99.285 -167.0432
1336.449707 99.298 -166.8033
1346.134173 99.313 -166.5687
1355.888816 99.329 -166.3426
1365.714145 99.346 -166.1231
1375.610673 99.365 -165.9052
1385.578915 99.385 -165.6863
1395.619391 99.406 -165.4687
1405.732624 99.428 -165.2549
1415.919142 99.449 -165.0445
1426.179476 99.470 -164.8343
1436.514160 99.491 -164.6211
1446.923734 99.511 -164.4039
1457.408740 99.533 -164.1850
1467.969724 99.556 -163.9692
1478.607238 99.581 -163.7606
1489.321836 99.608 -163.5611
1500.114076 99.636 -163.3711
1510.984521 99.666 -163.1904
1521.933737 99.697 -163.0168
1532.962297 99.728 -162.8472
1544.070773 99.758 -162.6810
1555.259747 99.788 -162.5227
1566.529800 99.818 -162.3786
1577.881521 99.847 -162.2528
1589.315501 99.878 -162.1449
1600.832336 99.911 -162.0490
1612.432627 99.945 -161.9562
1624.116978 99.981 -161.8591
1635.886000 100.018 -161.7547
1647.740304 100.055 -161.6443
1659.680509 100.091 -161.5319
1671.707238 100.126 -161.4233
1683.821118 100.161 -161.3247
1696.022780 100.196 -161.2398
1708.312860 100.232 -161.1689
1720.692000 100.269 -161.1092
1733.160843 100.307 -161.0575
1745.720041 100.345 -161.0141
1758.370248 100.383 -160.9822
1771.112124 100.421 -160.9659
1783.946332 100.459 -160.9662
1796.873543 100.497 -160.9806
1809.894429 100.535 -161.0056
1823.009670 100.572 -161.0402
1836.219950 100.609 -161.0866
1849.525956 100.644 -161.1482
1862.928384 100.677 -161.2267
1876.427931 100.709 -161.3216
1890.025301 100.739 -161.4310
1903.721204 100.768 -161.5523
1917.516352 100.796 -161.6836
1931.411466 100.824 -161.8233
1945.407270 100.849 -161.9688
1959.504493 100.872 -162.1167
1973.703870 100.890 -162.2650
1988.006142 100.904 -162.4149
2002.412054 100.914 -162.5676
2016.922357 100.918 -162.7190
2031.537808 100.918 -162.8604
2046.259169 100.916 -162.9812
2061.087206 100.912 -163.0758
2076.022694 100.907 -163.1470
2091.066410 100.903 -163.2025
2106.219139 100.901 -163.2496
2121.481671 100.900 -163.2933
2136.854802 100.901 -163.3367
2152.339333 100.903 -163.3806
2167.936071 100.907 -163.4251
2183.645829 100.911 -163.4726
2199.469427 100.916 -163.5282
2215.407689 100.921 -163.5962
2231.461446 100.923 -163.6765
2247.631536 100.922 -163.7661
2263.918800 100.917 -163.8639
2280.324089 100.907 -163.9695
2296.848258 100.894 -164.0820
2313.492167 100.877 -164.1980
2330.256685 100.856 -164.3099
2347.142685 100.832 -164.4093
2364.151049 100.804 -164.4899
2381.282662 100.773 -164.5461
2398.538418 100.739 -164.5717
2415.919216 100.702 -164.5617
2433.425962 100.664 -164.5147
2451.059570 100.624 -164.4327
2468.820958 100.585 -164.3187
2486.711052 100.547 -164.1763
2504.730786 100.510 -164.0109
2522.881098 100.474 -163.8272
2541.162934 100.440 -163.6273
2559.577248 100.406 -163.4129
2578.125000 100.373 -163.1866
2596.807157 100.339 -162.9489
2615.624692 100.304 -162.6965
2634.578586 100.269 -162.4216
2653.669829 100.232 -162.1162
2672.899414 100.194 -161.7751
2692.268345 100.157 -161.3945
2711.777632 100.121 -160.9705
2731.428290 100.088 -160.5000
2751.221345 100.060 -159.9816
2771.157829 100.038 -159.4190
2791.238781 100.023 -158.8235
2811.465248 100.016 -158.2114
2831.838284 100.015 -157.5979
2852.358952 100.021 -156.9908
2873.028321 100.030 -156.3894
2893.847468 100.043 -155.7892
2914.817480 100.059 -155.1825
2935.939449 100.079 -154.5606
2957.214476 100.102 -153.9189
2978.643672 100.130 -153.2557
3000.228152 100.164 -152.5692
3021.969041 100.205 -151.8604
3043.867475 100.254 -151.1347
3065.924593 100.312 -150.3988
3088.141547 100.379 -149.6583
3110.519493 100.457 -148.9208
3133.059600 100.547 -148.1958
3155.763041 100.647 -147.4938
3178.631001 100.757 -146.8270
3201.664672 100.878 -146.2065
3224.865254 101.008 -145.6383
3248.233957 101.146 -145.1257
3271.771999 101.293 -144.6739
3295.480608 101.449 -144.2900
3319.361019 101.612 -143.9855
3343.414477 101.781 -143.7738
3367.642236 101.955 -143.6664
3392.045560 102.130 -143.6700
3416.625721 102.303 -143.7858
3441.383999 102.473 -144.0078
3466.321686 102.636 -144.3246
3491.440082 102.791 -144.7235
3516.740496 102.938 -145.1935
3542.224247 103.077 -145.7260
3567.892664 103.207 -146.3147
3593.747085 103.328 -146.9538
3619.788858 103.440 -147.6385
3646.019340 103.543 -148.3647
3672.439900 103.637 -149.1298
3699.051913 103.722 -149.9338
3725.856768 103.797 -150.7777
3752.855862 103.860 -151.6609
3780.050603 103.912 -152.5787
3807.442408 103.950 -153.5225
3835.032705 103.974 -154.4818
3862.822933 103.983 -155.4453
3890.814540 103.977 -156.4008
3919.008986 103.955 -157.3348
3947.407741 103.919 -158.2327
3976.012284 103.867 -159.0793
4004.824108 103.802 -159.8607
4033.844715 103.726 -160.5656
4063.075616 103.640 -161.1856
4092.518337 103.546 -161.7155
4122.174412 103.447 -162.1532
4152.045387 103.345 -162.4998
4182.132820 103.241 -162.7583
4212.438278 103.137 -162.9335
4242.963342 103.035 -163.0312
4273.709604 102.935 -163.0570
4304.678665 102.838 -163.0164
4335.872141 102.745 -162.9142
4367.291658 102.655 -162.7544
4398.938854 102.570 -162.5406
4430.815378 102.489 -162.2753
4462.922893 102.413 -161.9610
4495.263072 102.343 -161.6002
4527.837601 102.278 -161.1954
4560.648179 102.220 -160.7497
4593.696515 102.169 -160.2669
4626.984334 102.126 -159.7523
4660.513370 102.092 -159.2131
4694.285371 102.066 -158.6588
4728.302098 102.050 -158.1003
4762.565324 102.041 -157.5481
4797.076835 102.038 -157.0102
4831.838432 102.041 -156.4895
4866.851925 102.046 -155.9826
4902.119140 102.053 -155.4801
4937.641916 102.063 -154.9693
4973.422105 102.074 -154.4379
5009.461572 102.089 -153.8778
5045.762195 102.110 -153.2878
5082.325868 102.139 -152.6731
5119.154496 102.177 -152.0434
5156.250000 102.224 -151.4100
5193.614313 102.281 -150.7827
5231.249383 102.346 -150.1694
5269.157173 102.421 -149.5753
5307.339658 102.503 -149.0040
5345.798829 102.593 -148.4574
5384.536691 102.690 -147.9366
5423.555263 102.793 -147.4425
5462.856580 102.904 -146.9754
5502.442691 103.022 -146.5363
5542.315659 103.147 -146.1274
5582.477563 103.279 -145.7522
5622.930497 103.420 -145.4153
5663.676569 103.568 -145.1222
5704.717904 103.724 -144.8788
5746.056642 103.887 -144.6918
5787.694937 104.058 -144.5691
5829.634960 104.235 -144.5185
5871.878898 104.419 -144.5476
5914.428953 104.606 -144.6621
5957.287343 104.797 -144.8664
6000.456303 104.991 -145.1635
6043.938083 105.185 -145.5553
6087.734950 105.378 -146.0420
6131.849187 105.570 -146.6223
6176.283094 105.760 -147.2947
6221.038987 105.947 -148.0581
6266.119200 106.130 -148.9128
6311.526083 106.309 -149.8602
6357.262002 106.483 -150.9027
6403.329344 106.651 -152.0431
6449.730508 106.811 -153.2844
6496.467914 106.961 -154.6291
6543.543998 107.100 -156.0764
6590.961215 107.224 -157.6213
6638.722037 107.331 -159.2527
6686.828954 107.419 -160.9554
6735.284473 107.487 -162.7110
6784.091120 107.535 -164.5008
6833.251441 107.562 -166.3070
6882.767998 107.569 -168.1143
6932.643372 107.558 -169.9093
6982.880164 107.530 -171.6802
7033.480992 107.486 -173.4168
7084.448495 107.428 -175.1118
7135.785329 107.358 -176.7614
7187.494171 107.277 -178.3671
7239.577717 107.188 -179.9338
7292.038681 107.090 178.5320
7344.879799 106.984 177.0245
7398.103826 106.869 175.5404
7451.713536 106.744 174.0797
7505.711724 106.608 172.6466
7560.101205 106.459 171.2498
7614.884815 106.298 169.9030
7670.065409 106.123 168.6246
7725.645865 105.936 167.4363
7781.629080 105.738 166.3607
7838.017972 105.536 165.4152
7894.815481 105.334 164.6057
7952.024569 105.140 163.9194
8009.648217 104.962 163.3224
8067.689429 104.802 162.7632
8126.151233 104.663 162.1822
8185.036674 104.542 161.5228
8244.348824 104.432 160.7411
8304.090774 104.326 159.8120
8364.265639 104.215 158.7314
8424.876556 104.090 157.5170
8485.926684 103.946 156.2026
8547.419207 103.778 154.8303
8609.357330 103.587 153.4385
8671.744282 103.375 152.0499
8734.583316 103.148 150.6624
8797.877707 102.905 149.2523
8861.630756 102.645 147.7933
8925.845785 102.358 146.2797
8990.526143 102.037 144.7393
9055.675202 101.673 143.2293
9121.296357 101.262 141.8235
9187.393031 100.803 140.5995
9253.968668 100.301 139.6266
9321.026740 99.760 138.9557
9388.570742 99.190 138.6196
9456.604196 98.594 138.6417
9525.130648 97.980 139.0475
9594.153671 97.351 139.8707
9663.676863 96.714 141.1543
9733.703850 96.078 142.9484
9804.238280 95.452 145.3036
9875.283832 94.854 148.2587
9946.844210 94.301 151.8227
10018.923143 93.816 155.9523
10091.524390 93.422 160.5266
10164.651736 93.135 165.3302
10238.308993 92.960 170.0852
10312.500000 92.882 174.5444
10387.228626 92.878 178.5826
10462.498767 92.921 -177.7864
10538.314345 92.992 -174.4606
10614.679315 93.085 -171.3172
10691.597657 93.203 -168.2627
10769.073381 93.351 -165.2595
10847.110526 93.540 -162.3316
10925.713161 93.771 -159.5532
11004.885382 94.044 -157.0215
11084.631318 94.349 -154.8204
11164.955126 94.672 -152.9873
11245.860993 95.002 -151.5064
11327.353138 95.332 -150.3249
11409.435808 95.659 -149.3837
11492.113283 95.985 -148.6436
11575.389873 96.313 -148.1003
11659.269920 96.644 -147.7818
11743.757796 96.971 -147.7260
11828.857906 97.285 -147.9482
11914.574686 97.577 -148.4210
12000.912606 97.838 -149.0764
12087.876166 98.068 -149.8242
12175.469900 98.273 -150.5717
12263.698373 98.466 -151.2447
12352.566187 98.663 -151.8058
12442.077974 98.884 -152.2653
12532.238400 99.145 -152.6811
12623.052165 99.460 -153.1535
12714.524005 99.837 -153.8132
12806.658687 100.277 -154.8085
12899.461015 100.770 -156.2893
12992.935827 101.303 -158.3928
13087.087996 101.852 -161.2310
13181.922430 102.391 -164.8798
13277.444074 102.887 -169.3722
13373.657907 103.309 -174.6916
13470.568945 103.625 179.2322
13568.182241 103.805 172.5247
13666.502883 103.825 165.3641
13765.535996 103.669 157.9686
13865.286744 103.330 150.5778
13965.760328 102.811 143.4292
14066.961984 102.123 136.7368
14168.896989 101.284 130.6759
14271.570658 100.317 125.3784
14374.988342 99.246 120.9324
14479.155433 98.096 117.3869
14584.077362 96.891 114.7561
14689.759598 95.657 113.0241
14796.207652 94.414 112.1492
14903.427072 93.184 112.0687
15011.423448 91.984 112.7057
15120.202410 90.827 113.9748
15229.769630 89.724 115.7894
15340.130819 88.682 118.0665
15451.291730 87.706 120.7319
15563.258160 86.798 123.7205
15676.035944 85.958 126.9747
15789.630962 85.188 130.4390
15904.049137 84.487 134.0542
16019.296433 83.854 137.7523
16135.378859 83.288 141.4555
16252.302465 82.783 145.0815
16370.073348 82.332 148.5554
16488.697648 81.924 151.8214
16608.181548 81.546 154.8499
16728.531278 81.185 157.6426
16849.753112 80.825 160.2344
16971.853368 80.455 162.6922
17094.838414 80.067 165.1089
17218.714660 79.656 167.5953
17343.488565 79.223 170.2678
17469.166632 78.777 173.2320
17595.755415 78.331 176.5627
17723.261512 77.903 -179.7146
17851.691571 77.512 -175.6391
17981.052287 77.179 -171.3262
18111.350404 76.915 -166.9646
18242.592715 76.724 -162.7894
18374.786062 76.597 -159.0376
18507.937336 76.515 -155.8968
18642.053479 76.447 -153.4692
18777.141484 76.355 -151.7582
18913.208391 76.203 -150.6725
19050.261296 75.959 -150.0342
19188.307342 75.600 -149.6014
19327.353727 75.122 -149.1098
19467.407699 74.538 -148.3319
19608.476560 73.890 -147.1493
19750.567664 73.251 -145.6373
19893.688419 72.724 -144.1283
20037.846286 72.422 -143.1525
