* Measurement data measured by REW V5.20.9
* Source: Головной телефон (TX 384Khz HiFi Audio), MICROPHONE (Общая громкость), R, volume: 0,250. Timing signal peak level 0,0 dBFS, measurement signal peak level zero
* Format: 256k Log Swept Sine, 1 sweep at -12,0 dBFS using an acoustic timing reference
* Dated: 11.09.2022 12:34:53
* REW Settings:
*  C-weighting compensation: Off
*  Target level: 75.0 dB
* Note: 
* Measurement: D13+ поролон
* Smoothing: 1/12 octave
* Frequency Step: 96 ppo
* Start Frequency: 20.141602 Hz
*
* Freq(Hz) SPL(dB) Phase(degrees)
20.141602 133.932 -157.9858
20.287556 133.931 -158.1176
20.434568 133.931 -158.3125
20.582645 133.930 -158.5525
20.731796 133.929 -158.8225
20.882027 133.928 -159.1118
21.033346 133.926 -159.4133
21.185763 133.925 -159.7228
21.339284 133.924 -160.0380
21.493917 133.922 -160.3575
21.649671 133.921 -160.6803
21.806553 133.920 -161.0056
21.964572 133.920 -161.3326
22.123737 133.919 -161.6604
22.284054 133.918 -161.9884
22.445534 133.918 -162.3157
22.608183 133.917 -162.6418
22.772012 133.917 -162.9662
22.937027 133.916 -163.2888
23.103238 133.915 -163.6094
23.270654 133.914 -163.9281
23.439282 133.914 -164.2452
23.609133 133.913 -164.5609
23.780215 133.912 -164.8757
23.952536 133.911 -165.1896
24.126106 133.910 -165.5031
24.300934 133.909 -165.8161
24.477028 133.908 -166.1286
24.654399 133.908 -166.4407
24.833055 133.907 -166.7519
25.013005 133.907 -167.0620
25.194260 133.907 -167.3706
25.376828 133.907 -167.6771
25.560719 133.908 -167.9811
25.745942 133.908 -168.2822
25.932508 133.908 -168.5797
26.120426 133.908 -168.8736
26.309705 133.908 -169.1636
26.500356 133.907 -169.4497
26.692388 133.906 -169.7324
26.885812 133.904 -170.0121
27.080638 133.901 -170.2897
27.276876 133.898 -170.5659
27.474535 133.895 -170.8419
27.673627 133.891 -171.1185
27.874161 133.887 -171.3965
28.076149 133.882 -171.6763
28.279600 133.877 -171.9582
28.484526 133.872 -172.2420
28.690937 133.866 -172.5274
28.898843 133.861 -172.8137
29.108256 133.856 -173.1002
29.319186 133.851 -173.3861
29.531645 133.847 -173.6707
29.745644 133.842 -173.9534
29.961193 133.838 -174.2337
30.178304 133.834 -174.5113
30.396989 133.830 -174.7860
30.617258 133.825 -175.0577
30.839123 133.820 -175.3266
31.062596 133.815 -175.5930
31.287688 133.809 -175.8573
31.514412 133.802 -176.1201
31.742778 133.795 -176.3820
31.972800 133.788 -176.6437
32.204488 133.780 -176.9058
32.437855 133.772 -177.1689
32.672913 133.763 -177.4330
32.909674 133.755 -177.6981
33.148151 133.746 -177.9639
33.388356 133.738 -178.2296
33.630302 133.729 -178.4945
33.874001 133.721 -178.7580
34.119466 133.712 -179.0193
34.366710 133.703 -179.2781
34.615745 133.694 -179.5344
34.866585 133.685 -179.7882
35.119243 133.675 179.9600
35.373731 133.665 179.7097
35.630064 133.655 179.4606
35.888254 133.644 179.2120
36.148315 133.633 178.9638
36.410261 133.622 178.7159
36.674104 133.610 178.4683
36.939860 133.598 178.2213
37.207542 133.586 177.9750
37.477163 133.574 177.7297
37.748738 133.562 177.4854
38.022281 133.550 177.2422
38.297806 133.538 176.9998
38.575327 133.526 176.7581
38.854860 133.513 176.5166
39.136419 133.500 176.2753
39.420017 133.487 176.0342
39.705671 133.473 175.7936
39.993395 133.459 175.5537
40.283203 133.444 175.3149
40.575112 133.429 175.0776
40.869136 133.413 174.8418
41.165290 133.398 174.6076
41.463591 133.382 174.3750
41.764053 133.367 174.1438
42.066693 133.351 173.9138
42.371525 133.335 173.6847
42.678567 133.319 173.4562
42.987834 133.303 173.2280
43.299341 133.287 172.9995
43.613106 133.271 172.7708
43.929145 133.254 172.5417
44.247473 133.238 172.3128
44.568109 133.221 172.0845
44.891068 133.204 171.8574
45.216367 133.186 171.6320
45.544023 133.169 171.4084
45.874054 133.151 171.1864
46.206476 133.133 170.9660
46.541307 133.114 170.7468
46.878565 133.096 170.5287
47.218266 133.077 170.3114
47.560429 133.058 170.0947
47.905072 133.038 169.8781
48.252212 133.019 169.6616
48.601867 132.999 169.4453
48.954056 132.979 169.2296
49.308798 132.959 169.0152
49.666109 132.938 168.8028
50.026010 132.917 168.5926
50.388520 132.897 168.3842
50.753656 132.876 168.1771
51.121437 132.856 167.9706
51.491884 132.835 167.7643
51.865016 132.814 167.5586
52.240851 132.792 167.3537
52.619410 132.771 167.1500
53.000712 132.749 166.9478
53.384777 132.726 166.7469
53.771625 132.704 166.5475
54.161276 132.681 166.3494
54.553751 132.658 166.1526
54.949070 132.634 165.9575
55.347254 132.610 165.7637
55.748323 132.586 165.5712
56.152298 132.562 165.3799
56.559201 132.538 165.1898
56.969052 132.514 165.0011
57.381873 132.489 164.8141
57.797686 132.464 164.6288
58.216512 132.439 164.4455
58.638373 132.414 164.2640
59.063291 132.388 164.0842
59.491288 132.362 163.9061
59.922386 132.335 163.7300
60.356608 132.308 163.5563
60.793977 132.281 163.3853
61.234515 132.253 163.2177
61.678246 132.225 163.0540
62.125192 132.196 162.8951
62.575377 132.168 162.7413
63.028824 132.139 162.5932
63.485557 132.110 162.4509
63.945599 132.082 162.3146
64.408975 132.055 162.1841
64.875709 132.028 162.0592
65.345825 132.001 161.9395
65.819348 131.976 161.8237
66.296302 131.952 161.7105
66.776713 131.928 161.5979
67.260604 131.906 161.4838
67.748002 131.885 161.3661
68.238932 131.864 161.2429
68.733420 131.845 161.1127
69.231490 131.826 160.9743
69.733170 131.807 160.8275
70.238485 131.787 160.6726
70.747463 131.768 160.5106
71.260128 131.747 160.3427
71.776508 131.726 160.1705
72.296630 131.703 159.9958
72.820521 131.680 159.8196
73.348209 131.655 159.6431
73.879720 131.630 159.4671
74.415083 131.603 159.2924
74.954326 131.576 159.1198
75.497475 131.549 158.9496
76.044561 131.521 158.7819
76.595612 131.492 158.6169
77.150655 131.463 158.4545
77.709720 131.433 158.2949
78.272837 131.404 158.1384
78.840034 131.373 157.9851
79.411342 131.343 157.8349
79.986789 131.312 157.6876
80.566406 131.281 157.5429
81.150224 131.250 157.4007
81.738272 131.219 157.2607
82.330581 131.187 157.1232
82.927182 131.155 156.9879
83.528107 131.123 156.8549
84.133386 131.091 156.7242
84.743051 131.058 156.5956
85.357134 131.026 156.4691
85.975667 130.993 156.3444
86.598682 130.960 156.2216
87.226212 130.927 156.1004
87.858289 130.894 155.9810
88.494946 130.861 155.8632
89.136217 130.827 155.7473
89.782135 130.794 155.6330
90.432733 130.760 155.5205
91.088046 130.726 155.4097
91.748108 130.691 155.3007
92.412952 130.657 155.1938
93.082615 130.622 155.0891
93.757130 130.588 154.9869
94.436533 130.553 154.8873
95.120859 130.518 154.7903
95.810144 130.483 154.6956
96.504423 130.448 154.6029
97.203734 130.413 154.5119
97.908112 130.377 154.4222
98.617595 130.342 154.3337
99.332219 130.307 154.2465
100.052021 130.271 154.1607
100.777039 130.236 154.0766
101.507311 130.200 153.9942
102.242875 130.165 153.9136
102.983769 130.129 153.8348
103.730032 130.094 153.7576
104.481702 130.058 153.6819
105.238820 130.022 153.6078
106.001424 129.986 153.5353
106.769554 129.950 153.4645
107.543250 129.913 153.3954
108.322553 129.877 153.3283
109.107503 129.840 153.2632
109.898141 129.804 153.2002
110.694508 129.767 153.1393
111.496646 129.730 153.0804
112.304596 129.693 153.0236
113.118402 129.655 152.9687
113.938104 129.618 152.9156
114.763747 129.581 152.8642
115.595372 129.543 152.8146
116.433024 129.506 152.7671
117.276746 129.468 152.7214
118.126581 129.430 152.6777
118.982575 129.393 152.6360
119.844772 129.355 152.5963
120.713217 129.317 152.5583
121.587954 129.279 152.5223
122.469031 129.241 152.4885
123.356492 129.203 152.4565
124.250384 129.164 152.4262
125.150753 129.126 152.3973
126.057647 129.087 152.3701
126.971113 129.049 152.3442
127.891198 129.010 152.3197
128.817950 128.971 152.2968
129.751418 128.932 152.2763
130.691651 128.893 152.2584
131.638696 128.854 152.2430
132.592604 128.815 152.2302
133.553425 128.775 152.2202
134.521208 128.735 152.2136
135.496004 128.695 152.2105
136.477864 128.654 152.2101
137.466839 128.614 152.2118
138.462981 128.573 152.2157
139.466340 128.532 152.2230
140.476971 128.491 152.2345
141.494925 128.449 152.2504
142.520256 128.408 152.2711
143.553016 128.366 152.2972
144.593260 128.323 152.3302
145.641043 128.281 152.3712
146.696418 128.239 152.4204
147.759441 128.196 152.4772
148.830166 128.155 152.5414
149.908651 128.113 152.6140
150.994951 128.072 152.6970
152.089123 128.032 152.7919
153.191223 127.994 152.8984
154.301310 127.958 153.0132
155.419441 127.925 153.1306
156.545674 127.894 153.2437
157.680069 127.865 153.3464
158.822683 127.838 153.4351
159.973578 127.811 153.5094
161.132813 127.784 153.5716
162.300447 127.755 153.6264
163.476543 127.725 153.6793
164.661162 127.694 153.7360
165.854364 127.661 153.8015
167.056213 127.628 153.8790
168.266772 127.596 153.9694
169.486102 127.565 154.0716
170.714268 127.536 154.1824
171.951334 127.510 154.2971
173.197364 127.486 154.4103
174.452424 127.465 154.5157
175.716578 127.447 154.6079
176.989893 127.429 154.6826
178.272434 127.413 154.7376
179.564270 127.395 154.7737
180.865467 127.376 154.7940
182.176092 127.355 154.8033
183.496216 127.330 154.8073
184.825905 127.303 154.8111
186.165229 127.274 154.8195
187.514259 127.241 154.8360
188.873065 127.207 154.8631
190.241717 127.170 154.9019
191.620287 127.133 154.9525
193.008847 127.094 155.0137
194.407468 127.055 155.0837
195.816225 127.016 155.1596
197.235190 126.977 155.2387
198.664438 126.938 155.3182
200.104042 126.900 155.3958
201.554078 126.863 155.4704
203.014622 126.827 155.5416
204.485750 126.792 155.6100
205.967538 126.758 155.6761
207.460064 126.724 155.7405
208.963405 126.691 155.8033
210.477640 126.657 155.8644
212.002848 126.625 155.9240
213.539108 126.592 155.9826
215.086500 126.559 156.0421
216.645105 126.527 156.1043
218.215005 126.495 156.1713
219.796281 126.462 156.2438
221.389015 126.429 156.3214
222.993292 126.396 156.4034
224.609193 126.362 156.4888
226.236804 126.328 156.5777
227.876209 126.294 156.6704
229.527494 126.260 156.7672
231.190745 126.226 156.8680
232.866048 126.192 156.9727
234.553491 126.158 157.0814
236.253163 126.124 157.1936
237.965150 126.091 157.3092
239.689544 126.057 157.4278
241.426433 126.024 157.5491
243.175909 125.992 157.6732
244.938062 125.959 157.7998
246.712984 125.927 157.9290
248.500768 125.895 158.0604
250.301507 125.863 158.1938
252.115295 125.831 158.3289
253.942226 125.800 158.4656
255.782396 125.769 158.6040
257.635901 125.739 158.7438
259.502837 125.708 158.8851
261.383301 125.678 159.0278
263.277392 125.648 159.1718
265.185209 125.618 159.3171
267.106850 125.588 159.4639
269.042417 125.558 159.6123
270.992009 125.529 159.7622
272.955729 125.499 159.9137
274.933678 125.470 160.0669
276.925961 125.441 160.2219
278.932681 125.411 160.3788
280.953942 125.382 160.5378
282.989850 125.354 160.6989
285.040511 125.325 160.8621
287.106032 125.296 161.0273
289.186521 125.268 161.1944
291.282086 125.240 161.3635
293.392836 125.212 161.5348
295.518881 125.184 161.7083
297.660333 125.156 161.8841
299.817302 125.128 162.0623
301.989902 125.101 162.2428
304.178245 125.074 162.4258
306.382446 125.048 162.6114
308.602620 125.021 162.7996
310.838882 124.995 162.9907
313.091348 124.969 163.1846
315.360137 124.943 163.3815
317.645367 124.918 163.5818
319.947156 124.893 163.7853
322.265625 124.869 163.9921
324.600895 124.845 164.2017
326.953086 124.822 164.4138
329.322323 124.800 164.6274
331.708729 124.779 164.8418
334.112427 124.758 165.0560
336.533543 124.739 165.2688
338.972204 124.720 165.4794
341.428536 124.702 165.6867
343.902668 124.685 165.8899
346.394729 124.667 166.0886
348.904848 124.650 166.2829
351.433156 124.633 166.4734
353.979786 124.616 166.6608
356.544869 124.598 166.8461
359.128540 124.580 167.0300
361.730934 124.562 167.2135
364.352185 124.543 167.3975
366.992431 124.524 167.5829
369.651810 124.504 167.7703
372.330459 124.485 167.9600
375.028519 124.465 168.1525
377.746130 124.445 168.3479
380.483434 124.425 168.5461
383.240574 124.405 168.7472
386.017693 124.385 168.9511
388.814937 124.366 169.1577
391.632450 124.346 169.3668
394.470380 124.327 169.5785
397.328875 124.308 169.7925
400.208084 124.289 170.0088
403.108157 124.270 170.2274
406.029245 124.252 170.4480
408.971500 124.234 170.6705
411.935076 124.216 170.8947
414.920127 124.199 171.1205
417.926810 124.182 171.3480
420.955280 124.165 171.5772
424.005695 124.148 171.8082
427.078215 124.131 172.0408
430.173000 124.115 172.2749
433.290211 124.100 172.5103
436.430010 124.084 172.7470
439.592562 124.069 172.9851
442.778031 124.054 173.2244
445.986583 124.039 173.4648
449.218386 124.024 173.7065
452.473607 124.010 173.9492
455.752418 123.996 174.1931
459.054987 123.982 174.4384
462.381489 123.969 174.6849
465.732096 123.956 174.9330
469.106983 123.943 175.1824
472.506325 123.930 175.4333
475.930301 123.917 175.6857
479.379088 123.905 175.9395
482.852867 123.893 176.1946
486.351817 123.881 176.4511
489.876123 123.870 176.7090
493.425968 123.859 176.9684
497.001536 123.848 177.2292
500.603014 123.838 177.4914
504.230589 123.828 177.7551
507.884452 123.818 178.0202
511.564792 123.808 178.2867
515.271802 123.799 178.5546
519.005673 123.790 178.8238
522.766602 123.781 179.0944
526.554785 123.773 179.3663
530.370418 123.764 179.6398
534.213700 123.757 179.9147
538.084833 123.749 -179.8087
541.984018 123.742 -179.5308
545.911457 123.734 -179.2514
549.867357 123.728 -178.9707
553.851922 123.721 -178.6884
557.865362 123.715 -178.4044
561.907884 123.709 -178.1188
565.979700 123.704 -177.8315
570.081022 123.699 -177.5425
574.212064 123.694 -177.2518
578.373042 123.690 -176.9595
582.564171 123.686 -176.6659
586.785671 123.682 -176.3708
591.037762 123.678 -176.0743
595.320665 123.675 -175.7761
599.634604 123.673 -175.4760
603.979804 123.670 -175.1740
608.356491 123.668 -174.8700
612.764893 123.667 -174.5642
617.205240 123.665 -174.2567
621.677763 123.664 -173.9474
626.182696 123.664 -173.6364
630.720274 123.664 -173.3236
635.290733 123.664 -173.0089
639.894312 123.664 -172.6925
644.531250 123.665 -172.3740
649.201789 123.667 -172.0535
653.906173 123.669 -171.7307
658.644647 123.671 -171.4057
663.417457 123.674 -171.0786
668.224854 123.677 -170.7494
673.067086 123.681 -170.4180
677.944408 123.685 -170.0844
682.857073 123.690 -169.7486
687.805336 123.695 -169.4106
692.789457 123.701 -169.0706
697.809695 123.707 -168.7284
702.866312 123.714 -168.3841
707.959571 123.721 -168.0374
713.089738 123.729 -167.6883
718.257080 123.737 -167.3367
723.461867 123.746 -166.9825
728.704370 123.755 -166.6259
733.984862 123.765 -166.2668
739.303619 123.776 -165.9053
744.660918 123.786 -165.5413
750.057038 123.798 -165.1747
755.492260 123.809 -164.8051
760.966869 123.822 -164.4320
766.481148 123.834 -164.0546
772.035387 123.847 -163.6718
777.629873 123.859 -163.2821
783.264900 123.872 -162.8835
788.940760 123.885 -162.4728
794.657750 123.899 -162.0455
800.416168 123.914 -161.5962
806.216313 123.931 -161.1193
812.058489 123.952 -160.6108
817.943000 123.979 -160.0721
823.870152 124.016 -159.5147
829.840255 124.063 -158.9640
835.853619 124.121 -158.4568
841.910559 124.185 -158.0276
848.011390 124.250 -157.6901
854.156430 124.310 -157.4282
860.346000 124.361 -157.2074
866.580422 124.404 -156.9931
872.860020 124.441 -156.7621
879.185124 124.474 -156.5043
885.556062 124.506 -156.2189
891.973166 124.537 -155.9098
898.436771 124.570 -155.5825
904.947215 124.605 -155.2419
911.504835 124.641 -154.8920
918.109975 124.679 -154.5350
924.762978 124.718 -154.1713
931.464192 124.758 -153.7999
938.213966 124.800 -153.4182
945.012651 124.844 -153.0227
951.860602 124.891 -152.6107
958.758176 124.943 -152.1830
965.705733 125.001 -151.7467
972.703635 125.067 -151.3179
979.752246 125.139 -150.9178
986.851935 125.216 -150.5653
994.003071 125.295 -150.2670
1001.206027 125.372 -150.0153
1008.461179 125.446 -149.7950
1015.768904 125.517 -149.5911
1023.129584 125.586 -149.3931
1030.543603 125.653 -149.1958
1038.011347 125.719 -148.9980
1045.533205 125.786 -148.8007
1053.109569 125.853 -148.6056
1060.740836 125.920 -148.4145
1068.427401 125.989 -148.2287
1076.169666 126.058 -148.0495
1083.968035 126.128 -147.8778
1091.822915 126.199 -147.7143
1099.734713 126.270 -147.5596
1107.703844 126.341 -147.4137
1115.730723 126.413 -147.2768
1123.815768 126.485 -147.1492
1131.959400 126.557 -147.0309
1140.162045 126.630 -146.9218
1148.424129 126.702 -146.8217
1156.746083 126.775 -146.7304
1165.128342 126.847 -146.6478
1173.571343 126.919 -146.5735
1182.075524 126.991 -146.5074
1190.641331 127.063 -146.4492
1199.269209 127.135 -146.3987
1207.959608 127.207 -146.3556
1216.712981 127.279 -146.3196
1225.529785 127.350 -146.2906
1234.410479 127.422 -146.2684
1243.355526 127.493 -146.2526
1252.365393 127.564 -146.2432
1261.440549 127.634 -146.2400
1270.581467 127.705 -146.2428
1279.788624 127.775 -146.2517
1289.062500 127.846 -146.2664
1298.403578 127.916 -146.2868
1307.812346 127.986 -146.3130
1317.289293 128.057 -146.3447
1326.834914 128.127 -146.3820
1336.449707 128.197 -146.4248
1346.134173 128.267 -146.4733
1355.888816 128.338 -146.5274
1365.714145 128.408 -146.5872
1375.610673 128.478 -146.6529
1385.578915 128.549 -146.7247
1395.619391 128.620 -146.8027
1405.732624 128.691 -146.8872
1415.919142 128.762 -146.9785
1426.179476 128.833 -147.0766
1436.514160 128.904 -147.1819
1446.923734 128.976 -147.2946
1457.408740 129.048 -147.4151
1467.969724 129.119 -147.5436
1478.607238 129.192 -147.6805
1489.321836 129.264 -147.8261
1500.114076 129.336 -147.9806
1510.984521 129.409 -148.1445
1521.933737 129.482 -148.3182
1532.962297 129.554 -148.5020
1544.070773 129.627 -148.6963
1555.259747 129.700 -148.9017
1566.529800 129.773 -149.1184
1577.881521 129.846 -149.3468
1589.315501 129.919 -149.5871
1600.832336 129.991 -149.8398
1612.432627 130.064 -150.1051
1624.116978 130.136 -150.3834
1635.886000 130.208 -150.6750
1647.740304 130.279 -150.9804
1659.680509 130.350 -151.2999
1671.707238 130.420 -151.6338
1683.821118 130.490 -151.9822
1696.022780 130.559 -152.3454
1708.312860 130.626 -152.7234
1720.692000 130.693 -153.1165
1733.160843 130.759 -153.5246
1745.720041 130.823 -153.9480
1758.370248 130.886 -154.3866
1771.112124 130.948 -154.8406
1783.946332 131.007 -155.3099
1796.873543 131.065 -155.7942
1809.894429 131.122 -156.2934
1823.009670 131.176 -156.8070
1836.219950 131.228 -157.3349
1849.525956 131.277 -157.8764
1862.928384 131.324 -158.4313
1876.427931 131.369 -158.9988
1890.025301 131.410 -159.5784
1903.721204 131.449 -160.1692
1917.516352 131.485 -160.7705
1931.411466 131.518 -161.3813
1945.407270 131.547 -162.0008
1959.504493 131.573 -162.6279
1973.703870 131.596 -163.2616
1988.006142 131.615 -163.9008
2002.412054 131.630 -164.5444
2016.922357 131.642 -165.1913
2031.537808 131.650 -165.8401
2046.259169 131.655 -166.4896
2061.087206 131.656 -167.1382
2076.022694 131.653 -167.7847
2091.066410 131.646 -168.4277
2106.219139 131.635 -169.0658
2121.481671 131.621 -169.6977
2136.854802 131.603 -170.3223
2152.339333 131.581 -170.9382
2167.936071 131.556 -171.5442
2183.645829 131.528 -172.1391
2199.469427 131.496 -172.7217
2215.407689 131.461 -173.2910
2231.461446 131.423 -173.8458
2247.631536 131.382 -174.3853
2263.918800 131.338 -174.9085
2280.324089 131.291 -175.4146
2296.848258 131.242 -175.9029
2313.492167 131.190 -176.3728
2330.256685 131.137 -176.8236
2347.142685 131.081 -177.2549
2364.151049 131.023 -177.6663
2381.282662 130.964 -178.0574
2398.538418 130.903 -178.4278
2415.919216 130.841 -178.7774
2433.425962 130.777 -179.1059
2451.059570 130.713 -179.4133
2468.820958 130.647 -179.6996
2486.711052 130.581 -179.9649
2504.730786 130.514 179.7907
2522.881098 130.447 179.5670
2541.162934 130.379 179.3640
2559.577248 130.311 179.1812
2578.125000 130.243 179.0184
2596.807157 130.175 178.8754
2615.624692 130.108 178.7518
2634.578586 130.041 178.6471
2653.669829 129.974 178.5610
2672.899414 129.908 178.4930
2692.268345 129.842 178.4426
2711.777632 129.777 178.4094
2731.428290 129.714 178.3928
2751.221345 129.651 178.3921
2771.157829 129.589 178.4067
2791.238781 129.528 178.4361
2811.465248 129.469 178.4794
2831.838284 129.411 178.5360
2852.358952 129.354 178.6053
2873.028321 129.298 178.6866
2893.847468 129.244 178.7791
2914.817480 129.192 178.8824
2935.939449 129.140 178.9958
2957.214476 129.091 179.1187
2978.643672 129.042 179.2506
3000.228152 128.996 179.3907
3021.969041 128.951 179.5385
3043.867475 128.908 179.6931
3065.924593 128.866 179.8538
3088.141547 128.826 -179.9804
3110.519493 128.788 -179.8104
3133.059600 128.751 -179.6376
3155.763041 128.716 -179.4632
3178.631001 128.682 -179.2886
3201.664672 128.650 -179.1156
3224.865254 128.619 -178.9457
3248.233957 128.588 -178.7803
3271.771999 128.557 -178.6205
3295.480608 128.526 -178.4657
3319.361019 128.492 -178.3131
3343.414477 128.456 -178.1555
3367.642236 128.415 -177.9797
3392.045560 128.370 -177.7657
3416.625721 128.323 -177.4898
3441.383999 128.278 -177.1316
3466.321686 128.240 -176.6875
3491.440082 128.216 -176.1803
3516.740496 128.208 -175.6560
3542.224247 128.216 -175.1649
3567.892664 128.235 -174.7408
3593.747085 128.260 -174.3935
3619.788858 128.288 -174.1149
3646.019340 128.314 -173.8890
3672.439900 128.339 -173.6994
3699.051913 128.361 -173.5333
3725.856768 128.383 -173.3822
3752.855862 128.403 -173.2411
3780.050603 128.422 -173.1080
3807.442408 128.442 -172.9822
3835.032705 128.462 -172.8641
3862.822933 128.483 -172.7547
3890.814540 128.504 -172.6551
3919.008986 128.527 -172.5664
3947.407741 128.550 -172.4899
3976.012284 128.574 -172.4270
4004.824108 128.599 -172.3787
4033.844715 128.625 -172.3464
4063.075616 128.651 -172.3313
4092.518337 128.678 -172.3346
4122.174412 128.705 -172.3575
4152.045387 128.732 -172.4008
4182.132820 128.759 -172.4655
4212.438278 128.785 -172.5524
4242.963342 128.811 -172.6620
4273.709604 128.836 -172.7950
4304.678665 128.859 -172.9518
4335.872141 128.880 -173.1325
4367.291658 128.900 -173.3372
4398.938854 128.917 -173.5656
4430.815378 128.931 -173.8173
4462.922893 128.942 -174.0914
4495.263072 128.949 -174.3866
4527.837601 128.953 -174.7014
4560.648179 128.951 -175.0337
4593.696515 128.946 -175.3811
4626.984334 128.935 -175.7408
4660.513370 128.918 -176.1098
4694.285371 128.897 -176.4847
4728.302098 128.869 -176.8627
4762.565324 128.837 -177.2410
4797.076835 128.798 -177.6174
4831.838432 128.755 -177.9899
4866.851925 128.706 -178.3576
4902.119140 128.651 -178.7197
4937.641916 128.591 -179.0766
4973.422105 128.525 -179.4290
5009.461572 128.454 -179.7781
5045.762195 128.374 179.8748
5082.325868 128.286 179.5296
5119.154496 128.188 179.1887
5156.250000 128.075 178.8609
5193.614313 127.945 178.5670
5231.249383 127.794 178.3481
5269.157173 127.618 178.2733
5307.339658 127.421 178.4440
5345.798829 127.212 178.9774
5384.536691 127.015 179.9581
5423.555263 126.861 -178.6441
5462.856580 126.776 -177.0262
5502.442691 126.766 -175.4836
5542.315659 126.811 -174.2485
5582.477563 126.882 -173.3941
5622.930497 126.953 -172.8641
5663.676569 127.011 -172.5510
5704.717904 127.052 -172.3537
5746.056642 127.076 -172.1994
5787.694937 127.087 -172.0449
5829.634960 127.091 -171.8692
5871.878898 127.089 -171.6654
5914.428953 127.086 -171.4345
5957.287343 127.082 -171.1814
6000.456303 127.079 -170.9120
6043.938083 127.077 -170.6322
6087.734950 127.077 -170.3469
6131.849187 127.079 -170.0601
6176.283094 127.082 -169.7747
6221.038987 127.087 -169.4924
6266.119200 127.092 -169.2142
6311.526083 127.099 -168.9399
6357.262002 127.106 -168.6687
6403.329344 127.114 -168.3992
6449.730508 127.122 -168.1297
6496.467914 127.130 -167.8578
6543.543998 127.140 -167.5812
6590.961215 127.149 -167.2972
6638.722037 127.160 -167.0032
6686.828954 127.172 -166.6967
6735.284473 127.186 -166.3751
6784.091120 127.203 -166.0362
6833.251441 127.222 -165.6778
6882.767998 127.245 -165.2979
6932.643372 127.273 -164.8952
6982.880164 127.307 -164.4694
7033.480992 127.348 -164.0214
7084.448495 127.397 -163.5534
7135.785329 127.456 -163.0688
7187.494171 127.526 -162.5717
7239.577717 127.608 -162.0669
7292.038681 127.703 -161.5596
7344.879799 127.814 -161.0567
7398.103826 127.941 -160.5670
7451.713536 128.088 -160.1027
7505.711724 128.256 -159.6804
7560.101205 128.447 -159.3213
7614.884815 128.663 -159.0521
7670.065409 128.905 -158.9043
7725.645865 129.173 -158.9146
7781.629080 129.467 -159.1235
7838.017972 129.784 -159.5745
7894.815481 130.121 -160.3120
7952.024569 130.472 -161.3797
8009.648217 130.832 -162.8180
8067.689429 131.190 -164.6619
8126.151233 131.538 -166.9390
8185.036674 131.861 -169.6655
8244.348824 132.146 -172.8405
8304.090774 132.377 -176.4401
8364.265639 132.540 179.5866
8424.876556 132.619 175.3190
8485.926684 132.604 170.8616
8547.419207 132.488 166.3383
8609.357330 132.269 161.8821
8671.744282 131.951 157.6243
8734.583316 131.541 153.6830
8797.877707 131.051 150.1549
8861.630756 130.498 147.1096
8925.845785 129.896 144.5878
8990.526143 129.262 142.6016
9055.675202 128.613 141.1393
9121.296357 127.961 140.1708
9187.393031 127.318 139.6545
9253.968668 126.692 139.5436
9321.026740 126.091 139.7901
9388.570742 125.518 140.3473
9456.604196 124.976 141.1716
9525.130648 124.467 142.2238
9594.153671 123.991 143.4702
9663.676863 123.549 144.8824
9733.703850 123.140 146.4365
9804.238280 122.766 148.1109
9875.283832 122.426 149.8842
9946.844210 122.122 151.7346
10018.923143 121.853 153.6391
10091.524390 121.621 155.5742
10164.651736 121.425 157.5154
10238.308993 121.265 159.4381
10312.500000 121.143 161.3161
10387.228626 121.056 163.1227
10462.498767 121.006 164.8304
10538.314345 120.990 166.4114
10614.679315 121.010 167.8368
10691.597657 121.062 169.0747
10769.073381 121.148 170.0864
10847.110526 121.266 170.8234
10925.713161 121.410 171.2282
11004.885382 121.576 171.2400
11084.631318 121.753 170.8028
11164.955126 121.929 169.8741
11245.860993 122.086 168.4326
11327.353138 122.208 166.4830
11409.435808 122.275 164.0608
11492.113283 122.272 161.2329
11575.389873 122.181 158.0975
11659.269920 121.991 154.7789
11743.757796 121.695 151.4202
11828.857906 121.289 148.1733
11914.574686 120.778 145.1878
12000.912606 120.169 142.6017
12087.876166 119.475 140.5348
12175.469900 118.711 139.0844
12263.698373 117.895 138.3237
12352.566187 117.046 138.3002
12442.077974 116.187 139.0332
12532.238400 115.339 140.5068
12623.052165 114.526 142.6595
12714.524005 113.770 145.3747
12806.658687 113.088 148.4825
12899.461015 112.489 151.7820
12992.935827 111.973 155.0822
13087.087996 111.526 158.2431
13181.922430 111.133 161.1952
13277.444074 110.776 163.9300
13373.657907 110.438 166.4774
13470.568945 110.107 168.8865
13568.182241 109.773 171.2181
13666.502883 109.432 173.5439
13765.535996 109.080 175.9431
13865.286744 108.720 178.4939
13965.760328 108.356 -178.7381
14066.961984 107.997 -175.7091
14168.896989 107.654 -172.4006
14271.570658 107.336 -168.8167
14374.988342 107.056 -164.9797
14479.155433 106.822 -160.9258
14584.077362 106.644 -156.7055
14689.759598 106.531 -152.3892
14796.207652 106.491 -148.0766
14903.427072 106.526 -143.9006
15011.423448 106.635 -140.0171
15120.202410 106.805 -136.5810
15229.769630 107.020 -133.7153
15340.130819 107.253 -131.4848
15451.291730 107.480 -129.8829
15563.258160 107.676 -128.8336
15676.035944 107.821 -128.2062
15789.630962 107.905 -127.8354
15904.049137 107.925 -127.5450
16019.296433 107.887 -127.1684
16135.378859 107.805 -126.5693
16252.302465 107.702 -125.6619
16370.073348 107.602 -124.4303
16488.697648 107.532 -122.9417
16608.181548 107.512 -121.3466
16728.531278 107.555 -119.8569
16849.753112 107.658 -118.7069
16971.853368 107.805 -118.1058
17094.838414 107.970 -118.2012
17218.714660 108.117 -119.0589
17343.488565 108.213 -120.6622
17469.166632 108.223 -122.9201
17595.755415 108.117 -125.6786
17723.261512 107.873 -128.7323
17851.691571 107.477 -131.8402
17981.052287 106.922 -134.7478
18111.350404 106.216 -137.2113
18242.592715 105.370 -139.0190
18374.786062 104.403 -139.9998
18507.937336 103.338 -140.0178
18642.053479 102.194 -138.9517
18777.141484 100.995 -136.6684
18913.208391 99.762 -133.0069
19050.261296 98.527 -127.7966
19188.307342 97.328 -120.9413
19327.353727 96.214 -112.5782
19467.407699 95.238 -103.2527
19608.476560 94.445 -93.9350
19750.567664 93.858 -85.7770
19893.688419 93.479 -79.7753
20037.846286 93.295 -76.6028
