* Measurement data measured by REW V5.20.9
* Source: Головной телефон (TX 384Khz HiFi Audio), MICROPHONE (Общая громкость), R, volume: 0,250. Timing signal peak level 0,0 dBFS, measurement signal peak level zero
* Format: 256k Log Swept Sine, 1 sweep at -12,0 dBFS using an acoustic timing reference
* Dated: 11.09.2022 12:38:59
* REW Settings:
*  C-weighting compensation: Off
*  Target level: 75.0 dB
* Note: 
* Measurement: D13+поролон=сетка
* Smoothing: 1/12 octave
* Frequency Step: 96 ppo
* Start Frequency: 20.141602 Hz
*
* Freq(Hz) SPL(dB) Phase(degrees)
20.141602 134.190 -159.1740
20.287556 134.189 -159.3054
20.434568 134.188 -159.4995
20.582645 134.186 -159.7385
20.731796 134.184 -160.0074
20.882027 134.182 -160.2950
21.033346 134.179 -160.5946
21.185763 134.176 -160.9019
21.339284 134.173 -161.2145
21.493917 134.171 -161.5310
21.649671 134.168 -161.8503
21.806553 134.166 -162.1718
21.964572 134.164 -162.4945
22.123737 134.162 -162.8178
22.284054 134.160 -163.1411
22.445534 134.158 -163.4635
22.608183 134.156 -163.7849
22.772012 134.155 -164.1048
22.937027 134.153 -164.4234
23.103238 134.151 -164.7408
23.270654 134.150 -165.0574
23.439282 134.149 -165.3736
23.609133 134.147 -165.6899
23.780215 134.146 -166.0065
23.952536 134.145 -166.3236
24.126106 134.143 -166.6412
24.300934 134.142 -166.9588
24.477028 134.141 -167.2760
24.654399 134.139 -167.5919
24.833055 134.138 -167.9060
25.013005 134.136 -168.2172
25.194260 134.135 -168.5251
25.376828 134.134 -168.8291
25.560719 134.133 -169.1289
25.745942 134.132 -169.4245
25.932508 134.131 -169.7162
26.120426 134.130 -170.0044
26.309705 134.128 -170.2897
26.500356 134.127 -170.5726
26.692388 134.124 -170.8539
26.885812 134.121 -171.1341
27.080638 134.117 -171.4138
27.276876 134.113 -171.6934
27.474535 134.108 -171.9733
27.673627 134.102 -172.2539
27.874161 134.096 -172.5353
28.076149 134.089 -172.8178
28.279600 134.083 -173.1014
28.484526 134.076 -173.3862
28.690937 134.070 -173.6719
28.898843 134.064 -173.9583
29.108256 134.058 -174.2448
29.319186 134.052 -174.5310
29.531645 134.046 -174.8161
29.745644 134.041 -175.0993
29.961193 134.035 -175.3802
30.178304 134.029 -175.6583
30.396989 134.023 -175.9334
30.617258 134.016 -176.2055
30.839123 134.009 -176.4750
31.062596 134.002 -176.7425
31.287688 133.994 -177.0085
31.514412 133.985 -177.2738
31.742778 133.976 -177.5388
31.972800 133.967 -177.8039
32.204488 133.957 -178.0693
32.437855 133.947 -178.3350
32.672913 133.937 -178.6009
32.909674 133.927 -178.8666
33.148151 133.917 -179.1319
33.388356 133.907 -179.3964
33.630302 133.897 -179.6597
33.874001 133.887 -179.9217
34.119466 133.877 179.8180
34.366710 133.866 179.5595
34.615745 133.855 179.3029
34.866585 133.844 179.0481
35.119243 133.832 178.7949
35.373731 133.821 178.5428
35.630064 133.808 178.2915
35.888254 133.796 178.0406
36.148315 133.783 177.7896
36.410261 133.771 177.5383
36.674104 133.758 177.2868
36.939860 133.744 177.0353
37.207542 133.731 176.7840
37.477163 133.717 176.5333
37.748738 133.704 176.2834
38.022281 133.690 176.0346
38.297806 133.675 175.7868
38.575327 133.661 175.5400
38.854860 133.646 175.2943
39.136419 133.632 175.0495
39.420017 133.617 174.8057
39.705671 133.601 174.5629
39.993395 133.586 174.3209
40.283203 133.571 174.0798
40.575112 133.555 173.8394
40.869136 133.539 173.5997
41.165290 133.523 173.3605
41.463591 133.507 173.1219
41.764053 133.491 172.8841
42.066693 133.474 172.6472
42.371525 133.457 172.4115
42.678567 133.440 172.1769
42.987834 133.423 171.9436
43.299341 133.405 171.7112
43.613106 133.387 171.4796
43.929145 133.369 171.2486
44.247473 133.351 171.0179
44.568109 133.332 170.7877
44.891068 133.314 170.5580
45.216367 133.295 170.3292
45.544023 133.276 170.1015
45.874054 133.257 169.8759
46.206476 133.238 169.6531
46.541307 133.219 169.4340
46.878565 133.199 169.2194
47.218266 133.180 169.0092
47.560429 133.159 168.8026
47.905072 133.139 168.5977
48.252212 133.118 168.3923
48.601867 133.097 168.1842
48.954056 133.075 167.9721
49.308798 133.053 167.7557
49.666109 133.030 167.5361
50.026010 133.007 167.3147
50.388520 132.983 167.0936
50.753656 132.960 166.8744
51.121437 132.937 166.6583
51.491884 132.913 166.4463
51.865016 132.890 166.2386
52.240851 132.866 166.0356
52.619410 132.842 165.8370
53.000712 132.818 165.6426
53.384777 132.793 165.4520
53.771625 132.769 165.2648
54.161276 132.744 165.0807
54.553751 132.719 164.8999
54.949070 132.695 164.7221
55.347254 132.670 164.5474
55.748323 132.646 164.3754
56.152298 132.622 164.2058
56.559201 132.598 164.0379
56.969052 132.574 163.8710
57.381873 132.550 163.7045
57.797686 132.527 163.5379
58.216512 132.505 163.3712
58.638373 132.483 163.2044
59.063291 132.462 163.0378
59.491288 132.441 162.8712
59.922386 132.420 162.7043
60.356608 132.400 162.5366
60.793977 132.379 162.3672
61.234515 132.358 162.1956
61.678246 132.337 162.0210
62.125192 132.315 161.8432
62.575377 132.294 161.6622
63.028824 132.271 161.4780
63.485557 132.249 161.2912
63.945599 132.226 161.1025
64.408975 132.202 160.9126
64.875709 132.178 160.7223
65.345825 132.153 160.5321
65.819348 132.128 160.3423
66.296302 132.102 160.1532
66.776713 132.076 159.9650
67.260604 132.049 159.7783
67.748002 132.022 159.5934
68.238932 131.994 159.4111
68.733420 131.966 159.2316
69.231490 131.938 159.0552
69.733170 131.910 158.8818
70.238485 131.881 158.7113
70.747463 131.852 158.5431
71.260128 131.823 158.3768
71.776508 131.794 158.2121
72.296630 131.765 158.0489
72.820521 131.735 157.8871
73.348209 131.705 157.7268
73.879720 131.675 157.5679
74.415083 131.645 157.4106
74.954326 131.614 157.2549
75.497475 131.584 157.1009
76.044561 131.553 156.9484
76.595612 131.522 156.7971
77.150655 131.491 156.6470
77.709720 131.460 156.4983
78.272837 131.429 156.3513
78.840034 131.397 156.2060
79.411342 131.365 156.0625
79.986789 131.333 155.9205
80.566406 131.301 155.7797
81.150224 131.268 155.6401
81.738272 131.236 155.5019
82.330581 131.203 155.3651
82.927182 131.170 155.2297
83.528107 131.137 155.0957
84.133386 131.103 154.9630
84.743051 131.069 154.8316
85.357134 131.036 154.7017
85.975667 131.002 154.5735
86.598682 130.968 154.4473
87.226212 130.934 154.3231
87.858289 130.900 154.2006
88.494946 130.866 154.0797
89.136217 130.831 153.9607
89.782135 130.796 153.8434
90.432733 130.762 153.7281
91.088046 130.727 153.6147
91.748108 130.691 153.5029
92.412952 130.656 153.3928
93.082615 130.621 153.2842
93.757130 130.585 153.1772
94.436533 130.550 153.0721
95.120859 130.514 152.9687
95.810144 130.478 152.8672
96.504423 130.442 152.7678
97.203734 130.406 152.6703
97.908112 130.370 152.5748
98.617595 130.334 152.4813
99.332219 130.298 152.3896
100.052021 130.261 152.2998
100.777039 130.225 152.2115
101.507311 130.188 152.1245
102.242875 130.150 152.0385
102.983769 130.113 151.9532
103.730032 130.076 151.8692
104.481702 130.039 151.7869
105.238820 130.001 151.7072
106.001424 129.964 151.6301
106.769554 129.927 151.5557
107.543250 129.889 151.4835
108.322553 129.852 151.4131
109.107503 129.814 151.3438
109.898141 129.776 151.2756
110.694508 129.738 151.2086
111.496646 129.700 151.1434
112.304596 129.662 151.0806
113.118402 129.623 151.0202
113.938104 129.585 150.9623
114.763747 129.546 150.9066
115.595372 129.508 150.8528
116.433024 129.469 150.8007
117.276746 129.431 150.7504
118.126581 129.392 150.7020
118.982575 129.353 150.6554
119.844772 129.315 150.6105
120.713217 129.276 150.5674
121.587954 129.237 150.5261
122.469031 129.197 150.4868
123.356492 129.158 150.4495
124.250384 129.118 150.4142
125.150753 129.079 150.3810
126.057647 129.039 150.3497
126.971113 129.000 150.3203
127.891198 128.960 150.2923
128.817950 128.920 150.2656
129.751418 128.879 150.2401
130.691651 128.839 150.2163
131.638696 128.798 150.1948
132.592604 128.757 150.1764
133.553425 128.716 150.1616
134.521208 128.675 150.1507
135.496004 128.633 150.1436
136.477864 128.592 150.1400
137.466839 128.550 150.1396
138.462981 128.508 150.1423
139.466340 128.466 150.1481
140.476971 128.423 150.1572
141.494925 128.381 150.1701
142.520256 128.338 150.1876
143.553016 128.295 150.2104
144.593260 128.251 150.2395
145.641043 128.208 150.2754
146.696418 128.165 150.3183
147.759441 128.122 150.3686
148.830166 128.079 150.4264
149.908651 128.036 150.4920
150.994951 127.994 150.5656
152.089123 127.952 150.6473
153.191223 127.912 150.7371
154.301310 127.872 150.8346
155.419441 127.833 150.9392
156.545674 127.796 151.0500
157.680069 127.761 151.1662
158.822683 127.727 151.2866
159.973578 127.695 151.4093
161.132813 127.665 151.5326
162.300447 127.637 151.6543
163.476543 127.612 151.7720
164.661162 127.588 151.8832
165.854364 127.566 151.9854
167.056213 127.545 152.0760
168.266772 127.525 152.1536
169.486102 127.506 152.2173
170.714268 127.486 152.2669
171.951334 127.466 152.3035
173.197364 127.446 152.3286
174.452424 127.424 152.3441
175.716578 127.401 152.3522
176.989893 127.376 152.3550
178.272434 127.350 152.3544
179.564270 127.323 152.3522
180.865467 127.295 152.3503
182.176092 127.266 152.3500
183.496216 127.236 152.3519
184.825905 127.205 152.3566
186.165229 127.174 152.3641
187.514259 127.142 152.3744
188.873065 127.109 152.3875
190.241717 127.076 152.4033
191.620287 127.043 152.4218
193.008847 127.009 152.4434
194.407468 126.975 152.4681
195.816225 126.940 152.4962
197.235190 126.906 152.5277
198.664438 126.871 152.5627
200.104042 126.836 152.6014
201.554078 126.801 152.6440
203.014622 126.766 152.6901
204.485750 126.731 152.7396
205.967538 126.695 152.7921
207.460064 126.660 152.8473
208.963405 126.625 152.9052
210.477640 126.589 152.9659
212.002848 126.554 153.0294
213.539108 126.519 153.0959
215.086500 126.484 153.1650
216.645105 126.449 153.2367
218.215005 126.414 153.3108
219.796281 126.379 153.3871
221.389015 126.344 153.4657
222.993292 126.310 153.5465
224.609193 126.275 153.6295
226.236804 126.241 153.7148
227.876209 126.207 153.8022
229.527494 126.172 153.8918
231.190745 126.138 153.9835
232.866048 126.104 154.0771
234.553491 126.070 154.1725
236.253163 126.036 154.2700
237.965150 126.002 154.3693
239.689544 125.969 154.4704
241.426433 125.935 154.5734
243.175909 125.902 154.6783
244.938062 125.869 154.7853
246.712984 125.835 154.8945
248.500768 125.803 155.0056
250.301507 125.770 155.1184
252.115295 125.737 155.2326
253.942226 125.705 155.3484
255.782396 125.672 155.4659
257.635901 125.640 155.5854
259.502837 125.608 155.7068
261.383301 125.576 155.8303
263.277392 125.544 155.9554
265.185209 125.512 156.0822
267.106850 125.481 156.2104
269.042417 125.449 156.3402
270.992009 125.418 156.4717
272.955729 125.387 156.6052
274.933678 125.356 156.7409
276.925961 125.325 156.8788
278.932681 125.295 157.0190
280.953942 125.264 157.1612
282.989850 125.234 157.3052
285.040511 125.204 157.4509
287.106032 125.173 157.5982
289.186521 125.144 157.7473
291.282086 125.114 157.8984
293.392836 125.084 158.0518
295.518881 125.055 158.2078
297.660333 125.026 158.3663
299.817302 124.997 158.5275
301.989902 124.968 158.6916
304.178245 124.939 158.8586
306.382446 124.911 159.0283
308.602620 124.882 159.2008
310.838882 124.855 159.3760
313.091348 124.828 159.5540
315.360137 124.801 159.7346
317.645367 124.774 159.9179
319.947156 124.749 160.1035
322.265625 124.724 160.2911
324.600895 124.700 160.4802
326.953086 124.677 160.6700
329.322323 124.654 160.8596
331.708729 124.633 161.0479
334.112427 124.612 161.2338
336.533543 124.592 161.4166
338.972204 124.572 161.5956
341.428536 124.552 161.7708
343.902668 124.533 161.9423
346.394729 124.514 162.1103
348.904848 124.494 162.2751
351.433156 124.474 162.4374
353.979786 124.454 162.5980
356.544869 124.433 162.7580
359.128540 124.412 162.9186
361.730934 124.391 163.0806
364.352185 124.369 163.2446
366.992431 124.347 163.4108
369.651810 124.326 163.5793
372.330459 124.304 163.7504
375.028519 124.282 163.9239
377.746130 124.260 164.0998
380.483434 124.238 164.2779
383.240574 124.217 164.4581
386.017693 124.195 164.6401
388.814937 124.174 164.8241
391.632450 124.153 165.0099
394.470380 124.132 165.1974
397.328875 124.112 165.3866
400.208084 124.092 165.5774
403.108157 124.071 165.7698
406.029245 124.052 165.9637
408.971500 124.032 166.1592
411.935076 124.012 166.3563
414.920127 123.993 166.5549
417.926810 123.974 166.7548
420.955280 123.955 166.9561
424.005695 123.937 167.1586
427.078215 123.918 167.3621
430.173000 123.900 167.5666
433.290211 123.882 167.7721
436.430010 123.865 167.9788
439.592562 123.847 168.1867
442.778031 123.830 168.3958
445.986583 123.813 168.6061
449.218386 123.796 168.8176
452.473607 123.779 169.0301
455.752418 123.763 169.2436
459.054987 123.747 169.4580
462.381489 123.731 169.6735
465.732096 123.716 169.8900
469.106983 123.701 170.1076
472.506325 123.685 170.3262
475.930301 123.671 170.5460
479.379088 123.656 170.7670
482.852867 123.642 170.9894
486.351817 123.627 171.2131
489.876123 123.614 171.4380
493.425968 123.600 171.6639
497.001536 123.586 171.8907
500.603014 123.573 172.1184
504.230589 123.560 172.3471
507.884452 123.547 172.5769
511.564792 123.535 172.8078
515.271802 123.522 173.0399
519.005673 123.510 173.2731
522.766602 123.499 173.5074
526.554785 123.487 173.7429
530.370418 123.476 173.9797
534.213700 123.465 174.2178
538.084833 123.454 174.4573
541.984018 123.443 174.6982
545.911457 123.433 174.9404
549.867357 123.423 175.1837
553.851922 123.413 175.4280
557.865362 123.403 175.6732
561.907884 123.394 175.9196
565.979700 123.385 176.1673
570.081022 123.376 176.4163
574.212064 123.368 176.6667
578.373042 123.359 176.9185
582.564171 123.351 177.1717
586.785671 123.343 177.4263
591.037762 123.336 177.6822
595.320665 123.329 177.9395
599.634604 123.322 178.1984
603.979804 123.315 178.4587
608.356491 123.309 178.7208
612.764893 123.303 178.9845
617.205240 123.297 179.2498
621.677763 123.291 179.5168
626.182696 123.286 179.7855
630.720274 123.282 -179.9444
635.290733 123.277 -179.6727
639.894312 123.273 -179.3994
644.531250 123.269 -179.1244
649.201789 123.265 -178.8475
653.906173 123.262 -178.5688
658.644647 123.259 -178.2882
663.417457 123.257 -178.0058
668.224854 123.255 -177.7216
673.067086 123.253 -177.4355
677.944408 123.252 -177.1476
682.857073 123.251 -176.8576
687.805336 123.250 -176.5655
692.789457 123.250 -176.2715
697.809695 123.250 -175.9754
702.866312 123.251 -175.6772
707.959571 123.252 -175.3768
713.089738 123.253 -175.0741
718.257080 123.255 -174.7691
723.461867 123.257 -174.4618
728.704370 123.260 -174.1521
733.984862 123.263 -173.8402
739.303619 123.266 -173.5258
744.660918 123.270 -173.2087
750.057038 123.275 -172.8888
755.492260 123.279 -172.5658
760.966869 123.284 -172.2391
766.481148 123.289 -171.9079
772.035387 123.294 -171.5711
777.629873 123.298 -171.2268
783.264900 123.303 -170.8725
788.940760 123.308 -170.5046
794.657750 123.314 -170.1184
800.416168 123.320 -169.7083
806.216313 123.329 -169.2686
812.058489 123.343 -168.7963
817.943000 123.364 -168.2948
823.870152 123.394 -167.7796
829.840255 123.435 -167.2801
835.853619 123.486 -166.8349
841.910559 123.543 -166.4754
848.011390 123.598 -166.2074
854.156430 123.646 -166.0077
860.346000 123.686 -165.8394
866.580422 123.717 -165.6695
872.860020 123.743 -165.4781
879.185124 123.765 -165.2578
885.556062 123.787 -165.0095
891.973166 123.808 -164.7378
898.436771 123.831 -164.4486
904.947215 123.855 -164.1469
911.504835 123.881 -163.8360
918.109975 123.908 -163.5176
924.762978 123.937 -163.1917
931.464192 123.967 -162.8563
938.213966 123.998 -162.5086
945.012651 124.032 -162.1453
951.860602 124.069 -161.7650
958.758176 124.112 -161.3708
965.705733 124.162 -160.9733
972.703635 124.219 -160.5916
979.752246 124.282 -160.2470
986.851935 124.348 -159.9540
994.003071 124.415 -159.7131
1001.206027 124.480 -159.5126
1008.461179 124.541 -159.3368
1015.768904 124.599 -159.1723
1023.129584 124.655 -159.0112
1030.543603 124.710 -158.8501
1038.011347 124.765 -158.6888
1045.533205 124.820 -158.5285
1053.109569 124.875 -158.3711
1060.740836 124.932 -158.2183
1068.427401 124.988 -158.0717
1076.169666 125.046 -157.9326
1083.968035 125.104 -157.8019
1091.822915 125.162 -157.6803
1099.734713 125.221 -157.5683
1107.703844 125.280 -157.4661
1115.730723 125.340 -157.3740
1123.815768 125.399 -157.2919
1131.959400 125.458 -157.2199
1140.162045 125.517 -157.1578
1148.424129 125.576 -157.1055
1156.746083 125.635 -157.0628
1165.128342 125.694 -157.0296
1173.571343 125.752 -157.0057
1182.075524 125.810 -156.9908
1190.641331 125.867 -156.9845
1199.269209 125.924 -156.9866
1207.959608 125.980 -156.9969
1216.712981 126.036 -157.0151
1225.529785 126.091 -157.0409
1234.410479 126.146 -157.0741
1243.355526 126.200 -157.1144
1252.365393 126.253 -157.1615
1261.440549 126.306 -157.2151
1270.581467 126.358 -157.2748
1279.788624 126.409 -157.3402
1289.062500 126.460 -157.4110
1298.403578 126.510 -157.4870
1307.812346 126.559 -157.5679
1317.289293 126.608 -157.6534
1326.834914 126.656 -157.7436
1336.449707 126.704 -157.8382
1346.134173 126.751 -157.9373
1355.888816 126.797 -158.0408
1365.714145 126.842 -158.1487
1375.610673 126.888 -158.2607
1385.578915 126.932 -158.3768
1395.619391 126.976 -158.4967
1405.732624 127.019 -158.6204
1415.919142 127.062 -158.7478
1426.179476 127.104 -158.8790
1436.514160 127.146 -159.0139
1446.923734 127.187 -159.1526
1457.408740 127.228 -159.2953
1467.969724 127.268 -159.4417
1478.607238 127.308 -159.5919
1489.321836 127.347 -159.7458
1500.114076 127.385 -159.9034
1510.984521 127.423 -160.0647
1521.933737 127.461 -160.2299
1532.962297 127.498 -160.3992
1544.070773 127.534 -160.5725
1555.259747 127.570 -160.7499
1566.529800 127.605 -160.9314
1577.881521 127.640 -161.1168
1589.315501 127.674 -161.3063
1600.832336 127.707 -161.4997
1612.432627 127.740 -161.6970
1624.116978 127.772 -161.8983
1635.886000 127.803 -162.1036
1647.740304 127.834 -162.3130
1659.680509 127.864 -162.5266
1671.707238 127.893 -162.7442
1683.821118 127.921 -162.9658
1696.022780 127.949 -163.1913
1708.312860 127.976 -163.4206
1720.692000 128.001 -163.6536
1733.160843 128.026 -163.8903
1745.720041 128.051 -164.1305
1758.370248 128.074 -164.3741
1771.112124 128.096 -164.6209
1783.946332 128.117 -164.8710
1796.873543 128.137 -165.1241
1809.894429 128.156 -165.3801
1823.009670 128.174 -165.6387
1836.219950 128.191 -165.8998
1849.525956 128.207 -166.1633
1862.928384 128.221 -166.4288
1876.427931 128.235 -166.6961
1890.025301 128.247 -166.9649
1903.721204 128.258 -167.2348
1917.516352 128.267 -167.5056
1931.411466 128.276 -167.7769
1945.407270 128.283 -168.0484
1959.504493 128.289 -168.3199
1973.703870 128.293 -168.5910
1988.006142 128.297 -168.8613
2002.412054 128.298 -169.1307
2016.922357 128.299 -169.3986
2031.537808 128.298 -169.6650
2046.259169 128.296 -169.9293
2061.087206 128.293 -170.1913
2076.022694 128.288 -170.4505
2091.066410 128.282 -170.7065
2106.219139 128.275 -170.9590
2121.481671 128.267 -171.2077
2136.854802 128.257 -171.4524
2152.339333 128.246 -171.6926
2167.936071 128.234 -171.9281
2183.645829 128.221 -172.1584
2199.469427 128.207 -172.3831
2215.407689 128.191 -172.6020
2231.461446 128.175 -172.8147
2247.631536 128.157 -173.0210
2263.918800 128.139 -173.2209
2280.324089 128.120 -173.4140
2296.848258 128.100 -173.6001
2313.492167 128.079 -173.7792
2330.256685 128.057 -173.9510
2347.142685 128.035 -174.1153
2364.151049 128.011 -174.2719
2381.282662 127.988 -174.4207
2398.538418 127.963 -174.5615
2415.919216 127.938 -174.6941
2433.425962 127.913 -174.8185
2451.059570 127.887 -174.9346
2468.820958 127.861 -175.0423
2486.711052 127.835 -175.1418
2504.730786 127.808 -175.2330
2522.881098 127.781 -175.3162
2541.162934 127.754 -175.3912
2559.577248 127.727 -175.4583
2578.125000 127.700 -175.5175
2596.807157 127.673 -175.5687
2615.624692 127.646 -175.6121
2634.578586 127.619 -175.6477
2653.669829 127.593 -175.6756
2672.899414 127.566 -175.6962
2692.268345 127.540 -175.7095
2711.777632 127.514 -175.7159
2731.428290 127.489 -175.7155
2751.221345 127.464 -175.7086
2771.157829 127.439 -175.6956
2791.238781 127.415 -175.6767
2811.465248 127.391 -175.6522
2831.838284 127.368 -175.6224
2852.358952 127.345 -175.5875
2873.028321 127.323 -175.5479
2893.847468 127.301 -175.5039
2914.817480 127.280 -175.4559
2935.939449 127.260 -175.4043
2957.214476 127.240 -175.3496
2978.643672 127.222 -175.2923
3000.228152 127.204 -175.2329
3021.969041 127.186 -175.1720
3043.867475 127.170 -175.1101
3065.924593 127.154 -175.0481
3088.141547 127.140 -174.9866
3110.519493 127.125 -174.9266
3133.059600 127.112 -174.8694
3155.763041 127.099 -174.8162
3178.631001 127.086 -174.7686
3201.664672 127.074 -174.7285
3224.865254 127.061 -174.6976
3248.233957 127.047 -174.6776
3271.771999 127.032 -174.6696
3295.480608 127.013 -174.6727
3319.361019 126.991 -174.6829
3343.414477 126.962 -174.6907
3367.642236 126.927 -174.6786
3392.045560 126.884 -174.6202
3416.625721 126.835 -174.4830
3441.383999 126.785 -174.2373
3466.321686 126.743 -173.8730
3491.440082 126.716 -173.4148
3516.740496 126.710 -172.9213
3542.224247 126.724 -172.4617
3567.892664 126.753 -172.0865
3593.747085 126.790 -171.8142
3619.788858 126.828 -171.6370
3646.019340 126.864 -171.5338
3672.439900 126.896 -171.4819
3699.051913 126.923 -171.4621
3725.856768 126.946 -171.4611
3752.855862 126.965 -171.4707
3780.050603 126.982 -171.4861
3807.442408 126.997 -171.5053
3835.032705 127.010 -171.5277
3862.822933 127.023 -171.5537
3890.814540 127.034 -171.5839
3919.008986 127.044 -171.6188
3947.407741 127.054 -171.6593
3976.012284 127.063 -171.7061
4004.824108 127.072 -171.7598
4033.844715 127.079 -171.8209
4063.075616 127.086 -171.8898
4092.518337 127.091 -171.9666
4122.174412 127.096 -172.0515
4152.045387 127.099 -172.1442
4182.132820 127.101 -172.2447
4212.438278 127.102 -172.3524
4242.963342 127.101 -172.4669
4273.709604 127.098 -172.5877
4304.678665 127.094 -172.7138
4335.872141 127.088 -172.8445
4367.291658 127.080 -172.9789
4398.938854 127.070 -173.1165
4430.815378 127.058 -173.2569
4462.922893 127.045 -173.3999
4495.263072 127.029 -173.5460
4527.837601 127.012 -173.6952
4560.648179 126.993 -173.8480
4593.696515 126.972 -174.0045
4626.984334 126.948 -174.1647
4660.513370 126.922 -174.3282
4694.285371 126.894 -174.4944
4728.302098 126.862 -174.6622
4762.565324 126.827 -174.8306
4797.076835 126.790 -174.9983
4831.838432 126.748 -175.1643
4866.851925 126.704 -175.3278
4902.119140 126.655 -175.4884
4937.641916 126.603 -175.6462
4973.422105 126.547 -175.8018
5009.461572 126.486 -175.9563
5045.762195 126.419 -176.1109
5082.325868 126.346 -176.2661
5119.154496 126.263 -176.4198
5156.250000 126.169 -176.5642
5193.614313 126.060 -176.6802
5231.249383 125.932 -176.7304
5269.157173 125.783 -176.6514
5307.339658 125.615 -176.3508
5345.798829 125.437 -175.7210
5384.536691 125.271 -174.6832
5423.555263 125.145 -173.2614
5462.856580 125.084 -171.6320
5502.442691 125.092 -170.0654
5542.315659 125.153 -168.7789
5582.477563 125.239 -167.8449
5622.930497 125.327 -167.2145
5663.676569 125.404 -166.7904
5704.717904 125.466 -166.4799
5746.056642 125.515 -166.2167
5787.694937 125.554 -165.9622
5829.634960 125.586 -165.6979
5871.878898 125.615 -165.4185
5914.428953 125.643 -165.1257
5957.287343 125.672 -164.8238
6000.456303 125.702 -164.5184
6043.938083 125.734 -164.2144
6087.734950 125.767 -163.9160
6131.849187 125.802 -163.6265
6176.283094 125.839 -163.3483
6221.038987 125.877 -163.0828
6266.119200 125.916 -162.8306
6311.526083 125.956 -162.5919
6357.262002 125.997 -162.3663
6403.329344 126.039 -162.1530
6449.730508 126.080 -161.9511
6496.467914 126.122 -161.7590
6543.543998 126.164 -161.5750
6590.961215 126.205 -161.3968
6638.722037 126.247 -161.2219
6686.828954 126.289 -161.0474
6735.284473 126.331 -160.8702
6784.091120 126.374 -160.6869
6833.251441 126.418 -160.4944
6882.767998 126.464 -160.2896
6932.643372 126.512 -160.0696
6982.880164 126.563 -159.8323
7033.480992 126.619 -159.5759
7084.448495 126.680 -159.3001
7135.785329 126.748 -159.0051
7187.494171 126.823 -158.6918
7239.577717 126.908 -158.3621
7292.038681 127.005 -158.0181
7344.879799 127.114 -157.6638
7398.103826 127.238 -157.3062
7451.713536 127.381 -156.9559
7505.711724 127.543 -156.6283
7560.101205 127.729 -156.3440
7614.884815 127.939 -156.1289
7670.065409 128.176 -156.0137
7725.645865 128.439 -156.0342
7781.629080 128.730 -156.2300
7838.017972 129.046 -156.6443
7894.815481 129.385 -157.3226
7952.024569 129.743 -158.3116
8009.648217 130.114 -159.6566
8067.689429 130.488 -161.3988
8126.151233 130.856 -163.5720
8185.036674 131.206 -166.1978
8244.348824 131.523 -169.2811
8304.090774 131.793 -172.8055
8364.265639 131.998 -176.7294
8424.876556 132.126 179.0155
8485.926684 132.165 174.5234
8547.419207 132.105 169.9096
8609.357330 131.943 165.3023
8671.744282 131.679 160.8325
8734.583316 131.321 156.6237
8797.877707 130.877 152.7820
8861.630756 130.363 149.3903
8925.845785 129.792 146.5033
8990.526143 129.184 144.1469
9055.675202 128.553 142.3192
9121.296357 127.915 140.9944
9187.393031 127.283 140.1306
9253.968668 126.666 139.6782
9321.026740 126.072 139.5869
9388.570742 125.504 139.8102
9456.604196 124.965 140.3065
9525.130648 124.458 141.0389
9594.153671 123.984 141.9735
9663.676863 123.543 143.0785
9733.703850 123.138 144.3223
9804.238280 122.768 145.6742
9875.283832 122.433 147.1041
9946.844210 122.133 148.5840
10018.923143 121.868 150.0877
10091.524390 121.637 151.5902
10164.651736 121.439 153.0670
10238.308993 121.273 154.4934
10312.500000 121.139 155.8437
10387.228626 121.034 157.0918
10462.498767 120.957 158.2115
10538.314345 120.906 159.1774
10614.679315 120.878 159.9651
10691.597657 120.870 160.5511
10769.073381 120.878 160.9099
10847.110526 120.900 161.0130
10925.713161 120.930 160.8292
11004.885382 120.960 160.3288
11084.631318 120.982 159.4906
11164.955126 120.985 158.3083
11245.860993 120.956 156.7949
11327.353138 120.884 154.9839
11409.435808 120.757 152.9301
11492.113283 120.566 150.7064
11575.389873 120.304 148.4004
11659.269920 119.967 146.1090
11743.757796 119.553 143.9327
11828.857906 119.067 141.9697
11914.574686 118.512 140.3108
12000.912606 117.898 139.0363
12087.876166 117.234 138.2137
12175.469900 116.533 137.8974
12263.698373 115.807 138.1280
12352.566187 115.070 138.9313
12442.077974 114.339 140.3151
12532.238400 113.629 142.2600
12623.052165 112.960 144.7094
12714.524005 112.347 147.5590
12806.658687 111.804 150.6592
12899.461015 111.334 153.8365
12992.935827 110.933 156.9297
13087.087996 110.589 159.8264
13181.922430 110.284 162.4781
13277.444074 110.002 164.8930
13373.657907 109.728 167.1149
13470.568945 109.451 169.2051
13568.182241 109.164 171.2341
13666.502883 108.864 173.2782
13765.535996 108.550 175.4151
13865.286744 108.227 177.7156
13965.760328 107.901 -179.7662
14066.961984 107.582 -176.9993
14168.896989 107.280 -173.9782
14271.570658 107.005 -170.7197
14374.988342 106.768 -167.2583
14479.155433 106.575 -163.6420
14584.077362 106.436 -159.9313
14689.759598 106.355 -156.2039
14796.207652 106.337 -152.5614
14903.427072 106.382 -149.1283
15011.423448 106.484 -146.0390
15120.202410 106.627 -143.4134
15229.769630 106.792 -141.3292
15340.130819 106.956 -139.8031
15451.291730 107.093 -138.7831
15563.258160 107.185 -138.1567
15676.035944 107.218 -137.7694
15789.630962 107.189 -137.4492
15904.049137 107.102 -137.0315
16019.296433 106.969 -136.3796
16135.378859 106.810 -135.3999
16252.302465 106.648 -134.0552
16370.073348 106.506 -132.3761
16488.697648 106.409 -130.4669
16608.181548 106.371 -128.4983
16728.531278 106.400 -126.6827
16849.753112 106.490 -125.2371
16971.853368 106.622 -124.3446
17094.838414 106.771 -124.1254
17218.714660 106.906 -124.6250
17343.488565 106.994 -125.8171
17469.166632 107.006 -127.6146
17595.755415 106.917 -129.8818
17723.261512 106.708 -132.4444
17851.691571 106.366 -135.1021
17981.052287 105.885 -137.6420
18111.350404 105.269 -139.8572
18242.592715 104.527 -141.5622
18374.786062 103.673 -142.6002
18507.937336 102.722 -142.8383
18642.053479 101.693 -142.1506
18777.141484 100.602 -140.3985
18913.208391 99.469 -137.4216
19050.261296 98.323 -133.0595
19188.307342 97.199 -127.2265
19327.353727 96.146 -120.0423
19467.407699 95.214 -111.9717
19608.476560 94.449 -103.8401
19750.567664 93.876 -96.6485
19893.688419 93.502 -91.3040
20037.846286 93.319 -88.4582
