* Measurement data measured by REW V5.20.9
* Source: Input device not selected, no input selected, L, volume: no control. Timing signal peak level -6,8 dBFS, measurement signal peak level -6,8 dBFS
* Format: 256k Log Swept Sine, 1 sweep at -12,0 dBFS using an acoustic timing reference
* Dated: 12.03.2023 17:10:17
* REW Settings:
*  C-weighting compensation: Off
*  Target level: 75.0 dB
* Note: Delay -0,0253 ms (-8,7 mm, -0,34 in) using estimated IR delay relative to Acoustic reference on  L with no timing offset
* Measurement: TA3 R
* Smoothing: 1/12 octave
* Frequency Step: 96 ppo
* Start Frequency: 20.141602 Hz
*
* Freq(Hz) SPL(dB) Phase(degrees)
20.141602 114.161 -92.4100
20.287556 114.188 -92.6258
20.434568 114.226 -92.9459
20.582645 114.274 -93.3424
20.731796 114.328 -93.7909
20.882027 114.386 -94.2722
21.033346 114.445 -94.7721
21.185763 114.504 -95.2798
21.339284 114.562 -95.7868
21.493917 114.619 -96.2865
21.649671 114.674 -96.7736
21.806553 114.729 -97.2447
21.964572 114.782 -97.6988
22.123737 114.835 -98.1367
22.284054 114.888 -98.5619
22.445534 114.941 -98.9801
22.608183 114.994 -99.3983
22.772012 115.049 -99.8248
22.937027 115.103 -100.2677
23.103238 115.158 -100.7340
23.270654 115.212 -101.2290
23.439282 115.265 -101.7556
23.609133 115.315 -102.3133
23.780215 115.364 -102.8991
23.952536 115.410 -103.5070
24.126106 115.453 -104.1291
24.300934 115.495 -104.7563
24.477028 115.536 -105.3790
24.654399 115.576 -105.9884
24.833055 115.616 -106.5773
25.013005 115.658 -107.1404
25.194260 115.703 -107.6749
25.376828 115.750 -108.1804
25.560719 115.799 -108.6584
25.745942 115.851 -109.1122
25.932508 115.905 -109.5462
26.120426 115.960 -109.9651
26.309705 116.015 -110.3737
26.500356 116.070 -110.7766
26.692388 116.123 -111.1779
26.885812 116.174 -111.5817
27.080638 116.223 -111.9914
27.276876 116.270 -112.4104
27.474535 116.315 -112.8416
27.673627 116.357 -113.2874
27.874161 116.398 -113.7492
28.076149 116.436 -114.2272
28.279600 116.473 -114.7201
28.484526 116.509 -115.2253
28.690937 116.544 -115.7389
28.898843 116.577 -116.2560
29.108256 116.610 -116.7718
29.319186 116.643 -117.2822
29.531645 116.676 -117.7843
29.745644 116.710 -118.2769
29.961193 116.745 -118.7606
30.178304 116.781 -119.2373
30.396989 116.818 -119.7098
30.617258 116.855 -120.1809
30.839123 116.892 -120.6527
31.062596 116.929 -121.1260
31.287688 116.964 -121.6006
31.514412 116.997 -122.0751
31.742778 117.029 -122.5476
31.972800 117.059 -123.0166
32.204488 117.089 -123.4814
32.437855 117.117 -123.9424
32.672913 117.145 -124.4010
32.909674 117.173 -124.8596
33.148151 117.201 -125.3207
33.388356 117.229 -125.7859
33.630302 117.257 -126.2564
33.874001 117.284 -126.7317
34.119466 117.311 -127.2105
34.366710 117.337 -127.6909
34.615745 117.363 -128.1704
34.866585 117.389 -128.6470
35.119243 117.415 -129.1192
35.373731 117.442 -129.5856
35.630064 117.469 -130.0455
35.888254 117.496 -130.4988
36.148315 117.522 -130.9455
36.410261 117.548 -131.3861
36.674104 117.574 -131.8217
36.939860 117.598 -132.2540
37.207542 117.622 -132.6850
37.477163 117.645 -133.1168
37.748738 117.667 -133.5510
38.022281 117.688 -133.9886
38.297806 117.708 -134.4292
38.575327 117.727 -134.8718
38.854860 117.746 -135.3145
39.136419 117.764 -135.7553
39.420017 117.782 -136.1930
39.705671 117.800 -136.6268
39.993395 117.818 -137.0572
40.283203 117.836 -137.4852
40.575112 117.854 -137.9119
40.869136 117.871 -138.3385
41.165290 117.888 -138.7653
41.463591 117.904 -139.1923
41.764053 117.920 -139.6190
42.066693 117.936 -140.0447
42.371525 117.950 -140.4689
42.678567 117.964 -140.8910
42.987834 117.978 -141.3111
43.299341 117.991 -141.7293
43.613106 118.004 -142.1466
43.929145 118.018 -142.5643
44.247473 118.032 -142.9841
44.568109 118.045 -143.4069
44.891068 118.059 -143.8326
45.216367 118.072 -144.2590
45.544023 118.084 -144.6828
45.874054 118.094 -145.1011
46.206476 118.102 -145.5129
46.541307 118.108 -145.9211
46.878565 118.111 -146.3315
47.218266 118.111 -146.7512
47.560429 118.108 -147.1837
47.905072 118.103 -147.6265
48.252212 118.095 -148.0705
48.601867 118.087 -148.5032
48.954056 118.083 -148.9141
49.308798 118.086 -149.2996
49.666109 118.096 -149.6641
50.026010 118.113 -150.0176
50.388520 118.136 -150.3703
50.753656 118.159 -150.7284
51.121437 118.181 -151.0928
51.491884 118.198 -151.4615
51.865016 118.211 -151.8328
52.240851 118.220 -152.2071
52.619410 118.226 -152.5863
53.000712 118.230 -152.9714
53.384777 118.233 -153.3612
53.771625 118.236 -153.7523
54.161276 118.239 -154.1410
54.553751 118.242 -154.5253
54.949070 118.245 -154.9047
55.347254 118.248 -155.2806
55.748323 118.249 -155.6540
56.152298 118.250 -156.0258
56.559201 118.250 -156.3962
56.969052 118.250 -156.7658
57.381873 118.250 -157.1349
57.797686 118.250 -157.5042
58.216512 118.249 -157.8739
58.638373 118.248 -158.2441
59.063291 118.247 -158.6144
59.491288 118.245 -158.9838
59.922386 118.242 -159.3512
60.356608 118.239 -159.7153
60.793977 118.235 -160.0754
61.234515 118.231 -160.4316
61.678246 118.227 -160.7847
62.125192 118.222 -161.1360
62.575377 118.217 -161.4867
63.028824 118.211 -161.8376
63.485557 118.204 -162.1894
63.945599 118.197 -162.5419
64.408975 118.189 -162.8948
64.875709 118.181 -163.2472
65.345825 118.172 -163.5981
65.819348 118.163 -163.9459
66.296302 118.152 -164.2888
66.776713 118.141 -164.6254
67.260604 118.130 -164.9560
67.748002 118.118 -165.2823
68.238932 118.107 -165.6064
68.733420 118.095 -165.9300
69.231490 118.084 -166.2541
69.733170 118.072 -166.5798
70.238485 118.059 -166.9078
70.747463 118.045 -167.2384
71.260128 118.031 -167.5704
71.776508 118.016 -167.9014
72.296630 118.000 -168.2285
72.820521 117.983 -168.5503
73.348209 117.966 -168.8664
73.879720 117.949 -169.1775
74.415083 117.930 -169.4840
74.954326 117.911 -169.7857
75.497475 117.890 -170.0824
76.044561 117.869 -170.3748
76.595612 117.847 -170.6638
77.150655 117.824 -170.9491
77.709720 117.800 -171.2287
78.272837 117.774 -171.5002
78.840034 117.746 -171.7612
79.411342 117.717 -172.0095
79.986789 117.687 -172.2428
80.566406 117.656 -172.4585
81.150224 117.623 -172.6550
81.738272 117.589 -172.8306
82.330581 117.555 -172.9833
82.927182 117.520 -173.1097
83.528107 117.487 -173.2065
84.133386 117.457 -173.2726
84.743051 117.432 -173.3117
85.357134 117.412 -173.3313
85.975667 117.398 -173.3385
86.598682 117.389 -173.3381
87.226212 117.386 -173.3341
87.858289 117.391 -173.3325
88.494946 117.403 -173.3417
89.136217 117.421 -173.3717
89.782135 117.444 -173.4337
90.432733 117.469 -173.5390
91.088046 117.492 -173.6957
91.748108 117.511 -173.9054
92.412952 117.524 -174.1627
93.082615 117.533 -174.4577
93.757130 117.539 -174.7769
94.436533 117.542 -175.1044
95.120859 117.544 -175.4232
95.810144 117.546 -175.7211
96.504423 117.548 -175.9952
97.203734 117.549 -176.2538
97.908112 117.550 -176.5109
98.617595 117.549 -176.7787
99.332219 117.546 -177.0624
100.052021 117.541 -177.3596
100.777039 117.534 -177.6642
101.507311 117.525 -177.9699
102.242875 117.514 -178.2717
102.983769 117.502 -178.5671
103.730032 117.488 -178.8559
104.481702 117.474 -179.1391
105.238820 117.459 -179.4175
106.001424 117.443 -179.6916
106.769554 117.426 -179.9629
107.543250 117.407 179.7670
108.322553 117.386 179.4986
109.107503 117.365 179.2364
109.898141 117.343 178.9865
110.694508 117.322 178.7504
111.496646 117.302 178.5219
112.304596 117.281 178.2921
113.118402 117.259 178.0562
113.938104 117.237 177.8174
114.763747 117.215 177.5831
115.595372 117.192 177.3593
116.433024 117.168 177.1479
117.276746 117.143 176.9482
118.126581 117.117 176.7569
118.982575 117.091 176.5708
119.844772 117.066 176.3876
120.713217 117.040 176.2067
121.587954 117.016 176.0277
122.469031 116.992 175.8511
123.356492 116.967 175.6780
124.250384 116.942 175.5101
125.150753 116.918 175.3489
126.057647 116.893 175.1964
126.971113 116.869 175.0551
127.891198 116.845 174.9258
128.817950 116.822 174.8068
129.751418 116.801 174.6945
130.691651 116.781 174.5855
131.638696 116.764 174.4765
132.592604 116.748 174.3645
133.553425 116.732 174.2467
134.521208 116.717 174.1210
135.496004 116.703 173.9858
136.477864 116.689 173.8406
137.466839 116.675 173.6859
138.462981 116.662 173.5226
139.466340 116.647 173.3514
140.476971 116.632 173.1725
141.494925 116.615 172.9864
142.520256 116.598 172.7939
143.553016 116.580 172.5972
144.593260 116.561 172.3998
145.641043 116.540 172.2048
146.696418 116.518 172.0140
147.759441 116.494 171.8283
148.830166 116.469 171.6474
149.908651 116.443 171.4708
150.994951 116.416 171.2978
152.089123 116.389 171.1284
153.191223 116.362 170.9628
154.301310 116.335 170.8014
155.419441 116.307 170.6449
156.545674 116.279 170.4935
157.680069 116.251 170.3472
158.822683 116.223 170.2055
159.973578 116.194 170.0672
161.132813 116.164 169.9312
162.300447 116.134 169.7969
163.476543 116.104 169.6645
164.661162 116.074 169.5346
165.854364 116.043 169.4090
167.056213 116.012 169.2897
168.266772 115.981 169.1780
169.486102 115.950 169.0740
170.714268 115.919 168.9771
171.951334 115.887 168.8871
173.197364 115.855 168.8036
174.452424 115.823 168.7264
175.716578 115.791 168.6556
176.989893 115.760 168.5920
178.272434 115.728 168.5363
179.564270 115.697 168.4890
180.865467 115.667 168.4501
182.176092 115.638 168.4191
183.496216 115.610 168.3949
184.825905 115.583 168.3756
186.165229 115.558 168.3590
187.514259 115.535 168.3424
188.873065 115.514 168.3231
190.241717 115.494 168.2990
191.620287 115.474 168.2685
193.008847 115.455 168.2304
194.407468 115.437 168.1837
195.816225 115.418 168.1279
197.235190 115.399 168.0643
198.664438 115.380 167.9952
200.104042 115.361 167.9234
201.554078 115.341 167.8501
203.014622 115.321 167.7751
204.485750 115.301 167.6981
205.967538 115.280 167.6191
207.460064 115.259 167.5386
208.963405 115.236 167.4569
210.477640 115.213 167.3745
212.002848 115.189 167.2919
213.539108 115.164 167.2095
215.086500 115.138 167.1280
216.645105 115.112 167.0476
218.215005 115.085 166.9689
219.796281 115.058 166.8927
221.389015 115.030 166.8204
222.993292 115.002 166.7529
224.609193 114.973 166.6911
226.236804 114.945 166.6350
227.876209 114.916 166.5843
229.527494 114.887 166.5381
231.190745 114.858 166.4953
232.866048 114.829 166.4546
234.553491 114.799 166.4157
236.253163 114.769 166.3790
237.965150 114.740 166.3449
239.689544 114.710 166.3137
241.426433 114.680 166.2858
243.175909 114.650 166.2615
244.938062 114.621 166.2410
246.712984 114.591 166.2240
248.500768 114.561 166.2101
250.301507 114.532 166.1984
252.115295 114.502 166.1884
253.942226 114.473 166.1804
255.782396 114.444 166.1746
257.635901 114.415 166.1712
259.502837 114.385 166.1703
261.383301 114.356 166.1716
263.277392 114.327 166.1753
265.185209 114.297 166.1812
267.106850 114.268 166.1893
269.042417 114.239 166.1994
270.992009 114.210 166.2116
272.955729 114.181 166.2260
274.933678 114.153 166.2426
276.925961 114.124 166.2616
278.932681 114.096 166.2828
280.953942 114.068 166.3060
282.989850 114.040 166.3309
285.040511 114.012 166.3576
287.106032 113.984 166.3864
289.186521 113.956 166.4175
291.282086 113.929 166.4510
293.392836 113.901 166.4866
295.518881 113.873 166.5239
297.660333 113.846 166.5624
299.817302 113.818 166.6019
301.989902 113.791 166.6428
304.178245 113.764 166.6855
306.382446 113.736 166.7300
308.602620 113.709 166.7762
310.838882 113.682 166.8236
313.091348 113.656 166.8724
315.360137 113.629 166.9229
317.645367 113.602 166.9756
319.947156 113.576 167.0304
322.265625 113.550 167.0870
324.600895 113.524 167.1448
326.953086 113.497 167.2037
329.322323 113.471 167.2639
331.708729 113.446 167.3258
334.112427 113.420 167.3897
336.533543 113.394 167.4558
338.972204 113.369 167.5242
341.428536 113.343 167.5948
343.902668 113.318 167.6677
346.394729 113.293 167.7425
348.904848 113.268 167.8193
351.433156 113.243 167.8982
353.979786 113.218 167.9792
356.544869 113.193 168.0621
359.128540 113.168 168.1462
361.730934 113.144 168.2314
364.352185 113.119 168.3176
366.992431 113.095 168.4055
369.651810 113.071 168.4954
372.330459 113.047 168.5873
375.028519 113.023 168.6808
377.746130 112.999 168.7755
380.483434 112.975 168.8713
383.240574 112.952 168.9687
386.017693 112.928 169.0676
388.814937 112.905 169.1683
391.632450 112.881 169.2709
394.470380 112.858 169.3752
397.328875 112.834 169.4811
400.208084 112.810 169.5886
403.108157 112.787 169.6977
406.029245 112.764 169.8087
408.971500 112.740 169.9215
411.935076 112.717 170.0361
414.920127 112.694 170.1525
417.926810 112.672 170.2706
420.955280 112.649 170.3907
424.005695 112.626 170.5126
427.078215 112.604 170.6365
430.173000 112.582 170.7619
433.290211 112.560 170.8886
436.430010 112.538 171.0168
439.592562 112.516 171.1468
442.778031 112.494 171.2787
445.986583 112.473 171.4123
449.218386 112.452 171.5472
452.473607 112.431 171.6833
455.752418 112.410 171.8207
459.054987 112.389 171.9599
462.381489 112.368 172.1013
465.732096 112.347 172.2449
469.106983 112.326 172.3907
472.506325 112.305 172.5386
475.930301 112.285 172.6883
479.379088 112.265 172.8399
482.852867 112.245 172.9930
486.351817 112.225 173.1477
489.876123 112.205 173.3040
493.425968 112.186 173.4622
497.001536 112.166 173.6225
500.603014 112.147 173.7848
504.230589 112.127 173.9490
507.884452 112.108 174.1153
511.564792 112.089 174.2836
515.271802 112.071 174.4538
519.005673 112.052 174.6259
522.766602 112.034 174.7997
526.554785 112.016 174.9757
530.370418 111.998 175.1538
534.213700 111.981 175.3342
538.084833 111.963 175.5169
541.984018 111.946 175.7017
545.911457 111.929 175.8886
549.867357 111.912 176.0781
553.851922 111.895 176.2701
557.865362 111.878 176.4643
561.907884 111.862 176.6605
565.979700 111.845 176.8588
570.081022 111.829 177.0593
574.212064 111.814 177.2625
578.373042 111.798 177.4688
582.564171 111.783 177.6782
586.785671 111.768 177.8910
591.037762 111.754 178.1067
595.320665 111.740 178.3248
599.634604 111.725 178.5451
603.979804 111.711 178.7676
608.356491 111.698 178.9923
612.764893 111.685 179.2194
617.205240 111.672 179.4487
621.677763 111.659 179.6804
626.182696 111.647 179.9147
630.720274 111.635 -179.8483
635.290733 111.623 -179.6079
639.894312 111.612 -179.3640
644.531250 111.601 -179.1168
649.201789 111.590 -178.8664
653.906173 111.580 -178.6130
658.644647 111.570 -178.3568
663.417457 111.560 -178.0976
668.224854 111.551 -177.8351
673.067086 111.543 -177.5693
677.944408 111.535 -177.3003
682.857073 111.527 -177.0282
687.805336 111.520 -176.7531
692.789457 111.514 -176.4747
697.809695 111.507 -176.1927
702.866312 111.502 -175.9067
707.959571 111.497 -175.6171
713.089738 111.493 -175.3242
718.257080 111.489 -175.0286
723.461867 111.486 -174.7306
728.704370 111.484 -174.4301
733.984862 111.482 -174.1271
739.303619 111.481 -173.8216
744.660918 111.481 -173.5132
750.057038 111.482 -173.2017
755.492260 111.483 -172.8869
760.966869 111.485 -172.5689
766.481148 111.488 -172.2479
772.035387 111.492 -171.9241
777.629873 111.497 -171.5976
783.264900 111.503 -171.2688
788.940760 111.510 -170.9384
794.657750 111.518 -170.6071
800.416168 111.528 -170.2760
806.216313 111.539 -169.9462
812.058489 111.550 -169.6186
817.943000 111.563 -169.2947
823.870152 111.577 -168.9758
829.840255 111.591 -168.6637
835.853619 111.606 -168.3596
841.910559 111.619 -168.0633
848.011390 111.632 -167.7722
854.156430 111.642 -167.4810
860.346000 111.651 -167.1819
866.580422 111.658 -166.8666
872.860020 111.665 -166.5294
879.185124 111.673 -166.1700
885.556062 111.683 -165.7925
891.973166 111.696 -165.4037
898.436771 111.710 -165.0097
904.947215 111.726 -164.6139
911.504835 111.742 -164.2159
918.109975 111.758 -163.8108
924.762978 111.774 -163.3901
931.464192 111.788 -162.9418
938.213966 111.804 -162.4521
945.012651 111.823 -161.9091
951.860602 111.849 -161.3078
958.758176 111.886 -160.6573
965.705733 111.938 -159.9841
972.703635 112.006 -159.3288
979.752246 112.088 -158.7347
986.851935 112.179 -158.2321
994.003071 112.275 -157.8302
1001.206027 112.369 -157.5182
1008.461179 112.458 -157.2745
1015.768904 112.542 -157.0758
1023.129584 112.621 -156.9026
1030.543603 112.695 -156.7414
1038.011347 112.766 -156.5842
1045.533205 112.834 -156.4275
1053.109569 112.901 -156.2701
1060.740836 112.968 -156.1126
1068.427401 113.034 -155.9561
1076.169666 113.100 -155.8019
1083.968035 113.167 -155.6513
1091.822915 113.234 -155.5058
1099.734713 113.301 -155.3668
1107.703844 113.369 -155.2352
1115.730723 113.437 -155.1118
1123.815768 113.506 -154.9967
1131.959400 113.575 -154.8903
1140.162045 113.644 -154.7925
1148.424129 113.714 -154.7034
1156.746083 113.783 -154.6230
1165.128342 113.853 -154.5514
1173.571343 113.923 -154.4885
1182.075524 113.993 -154.4345
1190.641331 114.063 -154.3895
1199.269209 114.133 -154.3537
1207.959608 114.203 -154.3271
1216.712981 114.273 -154.3096
1225.529785 114.343 -154.3013
1234.410479 114.413 -154.3022
1243.355526 114.483 -154.3128
1252.365393 114.553 -154.3336
1261.440549 114.622 -154.3651
1270.581467 114.692 -154.4079
1279.788624 114.761 -154.4619
1289.062500 114.829 -154.5267
1298.403578 114.896 -154.6005
1307.812346 114.962 -154.6800
1317.289293 115.026 -154.7605
1326.834914 115.090 -154.8376
1336.449707 115.154 -154.9096
1346.134173 115.218 -154.9785
1355.888816 115.284 -155.0493
1365.714145 115.352 -155.1269
1375.610673 115.421 -155.2151
1385.578915 115.490 -155.3156
1395.619391 115.560 -155.4289
1405.732624 115.631 -155.5545
1415.919142 115.701 -155.6921
1426.179476 115.771 -155.8411
1436.514160 115.841 -156.0010
1446.923734 115.911 -156.1719
1457.408740 115.981 -156.3538
1467.969724 116.051 -156.5469
1478.607238 116.121 -156.7517
1489.321836 116.191 -156.9686
1500.114076 116.261 -157.1980
1510.984521 116.331 -157.4406
1521.933737 116.400 -157.6969
1532.962297 116.470 -157.9673
1544.070773 116.539 -158.2521
1555.259747 116.608 -158.5518
1566.529800 116.676 -158.8668
1577.881521 116.744 -159.1974
1589.315501 116.811 -159.5438
1600.832336 116.877 -159.9062
1612.432627 116.942 -160.2843
1624.116978 117.006 -160.6781
1635.886000 117.069 -161.0878
1647.740304 117.131 -161.5137
1659.680509 117.191 -161.9561
1671.707238 117.250 -162.4153
1683.821118 117.308 -162.8916
1696.022780 117.363 -163.3851
1708.312860 117.416 -163.8956
1720.692000 117.467 -164.4228
1733.160843 117.516 -164.9661
1745.720041 117.562 -165.5250
1758.370248 117.606 -166.0987
1771.112124 117.646 -166.6868
1783.946332 117.684 -167.2883
1796.873543 117.718 -167.9023
1809.894429 117.749 -168.5279
1823.009670 117.776 -169.1638
1836.219950 117.800 -169.8093
1849.525956 117.820 -170.4633
1862.928384 117.836 -171.1246
1876.427931 117.848 -171.7923
1890.025301 117.856 -172.4651
1903.721204 117.860 -173.1420
1917.516352 117.860 -173.8213
1931.411466 117.855 -174.5018
1945.407270 117.846 -175.1816
1959.504493 117.833 -175.8593
1973.703870 117.815 -176.5332
1988.006142 117.793 -177.2018
2002.412054 117.767 -177.8637
2016.922357 117.737 -178.5175
2031.537808 117.702 -179.1616
2046.259169 117.664 -179.7944
2061.087206 117.621 179.5855
2076.022694 117.574 178.9794
2091.066410 117.524 178.3887
2106.219139 117.470 177.8145
2121.481671 117.413 177.2581
2136.854802 117.352 176.7207
2152.339333 117.288 176.2033
2167.936071 117.221 175.7070
2183.645829 117.151 175.2326
2199.469427 117.079 174.7808
2215.407689 117.005 174.3523
2231.461446 116.928 173.9476
2247.631536 116.849 173.5671
2263.918800 116.768 173.2116
2280.324089 116.686 172.8814
2296.848258 116.602 172.5769
2313.492167 116.517 172.2985
2330.256685 116.430 172.0465
2347.142685 116.343 171.8210
2364.151049 116.255 171.6223
2381.282662 116.166 171.4503
2398.538418 116.076 171.3052
2415.919216 115.986 171.1871
2433.425962 115.896 171.0963
2451.059570 115.806 171.0333
2468.820958 115.717 170.9984
2486.711052 115.627 170.9921
2504.730786 115.538 171.0145
2522.881098 115.451 171.0655
2541.162934 115.364 171.1450
2559.577248 115.280 171.2521
2578.125000 115.197 171.3857
2596.807157 115.117 171.5441
2615.624692 115.040 171.7245
2634.578586 114.965 171.9241
2653.669829 114.894 172.1395
2672.899414 114.825 172.3675
2692.268345 114.759 172.6056
2711.777632 114.695 172.8522
2731.428290 114.633 173.1069
2751.221345 114.572 173.3708
2771.157829 114.513 173.6459
2791.238781 114.454 173.9349
2811.465248 114.396 174.2407
2831.838284 114.339 174.5665
2852.358952 114.284 174.9148
2873.028321 114.230 175.2874
2893.847468 114.179 175.6854
2914.817480 114.131 176.1087
2935.939449 114.087 176.5566
2957.214476 114.047 177.0275
2978.643672 114.012 177.5188
3000.228152 113.982 178.0269
3021.969041 113.958 178.5475
3043.867475 113.940 179.0758
3065.924593 113.927 179.6069
3088.141547 113.921 -179.8631
3110.519493 113.919 -179.3375
3133.059600 113.923 -178.8184
3155.763041 113.931 -178.3065
3178.631001 113.944 -177.8021
3201.664672 113.960 -177.3047
3224.865254 113.981 -176.8138
3248.233957 114.006 -176.3288
3271.771999 114.035 -175.8497
3295.480608 114.069 -175.3771
3319.361019 114.107 -174.9117
3343.414477 114.151 -174.4550
3367.642236 114.200 -174.0087
3392.045560 114.254 -173.5750
3416.625721 114.315 -173.1571
3441.383999 114.381 -172.7584
3466.321686 114.454 -172.3828
3491.440082 114.534 -172.0346
3516.740496 114.620 -171.7183
3542.224247 114.713 -171.4390
3567.892664 114.812 -171.2020
3593.747085 114.918 -171.0131
3619.788858 115.030 -170.8782
3646.019340 115.148 -170.8033
3672.439900 115.271 -170.7942
3699.051913 115.398 -170.8569
3725.856768 115.530 -170.9969
3752.855862 115.665 -171.2199
3780.050603 115.801 -171.5309
3807.442408 115.939 -171.9351
3835.032705 116.077 -172.4373
3862.822933 116.214 -173.0419
3890.814540 116.348 -173.7530
3919.008986 116.477 -174.5742
3947.407741 116.601 -175.5085
3976.012284 116.716 -176.5580
4004.824108 116.821 -177.7232
4033.844715 116.914 -179.0031
4063.075616 116.991 179.6058
4092.518337 117.051 178.1098
4122.174412 117.090 176.5179
4152.045387 117.106 174.8426
4182.132820 117.096 173.0995
4212.438278 117.058 171.3080
4242.963342 116.991 169.4901
4273.709604 116.893 167.6708
4304.678665 116.763 165.8766
4335.872141 116.602 164.1354
4367.291658 116.408 162.4760
4398.938854 116.184 160.9277
4430.815378 115.931 159.5195
4462.922893 115.652 158.2798
4495.263072 115.350 157.2350
4527.837601 115.029 156.4084
4560.648179 114.694 155.8190
4593.696515 114.352 155.4783
4626.984334 114.008 155.3884
4660.513370 113.671 155.5396
4694.285371 113.346 155.9087
4728.302098 113.039 156.4598
4762.565324 112.754 157.1469
4797.076835 112.493 157.9197
4831.838432 112.254 158.7310
4866.851925 112.034 159.5431
4902.119140 111.828 160.3324
4937.641916 111.630 161.0906
4973.422105 111.437 161.8231
5009.461572 111.243 162.5454
5045.762195 111.046 163.2789
5082.325868 110.845 164.0466
5119.154496 110.639 164.8703
5156.250000 110.429 165.7693
5193.614313 110.217 166.7593
5231.249383 110.004 167.8524
5269.157173 109.792 169.0575
5307.339658 109.584 170.3802
5345.798829 109.382 171.8230
5384.536691 109.188 173.3859
5423.555263 109.003 175.0658
5462.856580 108.831 176.8563
5502.442691 108.673 178.7484
5542.315659 108.529 -179.2677
5582.477563 108.400 -177.1981
5622.930497 108.286 -175.0426
5663.676569 108.188 -172.7950
5704.717904 108.106 -170.4495
5746.056642 108.045 -168.0050
5787.694937 108.005 -165.4657
5829.634960 107.990 -162.8394
5871.878898 108.002 -160.1362
5914.428953 108.042 -157.3673
5957.287343 108.113 -154.5452
6000.456303 108.216 -151.6837
6043.938083 108.353 -148.7980
6087.734950 108.526 -145.9051
6131.849187 108.736 -143.0239
6176.283094 108.985 -140.1753
6221.038987 109.274 -137.3824
6266.119200 109.604 -134.6703
6311.526083 109.976 -132.0659
6357.262002 110.389 -129.5983
6403.329344 110.843 -127.2985
6449.730508 111.339 -125.1995
6496.467914 111.872 -123.3352
6543.543998 112.443 -121.7395
6590.961215 113.046 -120.4463
6638.722037 113.679 -119.4875
6686.828954 114.337 -118.8928
6735.284473 115.014 -118.6881
6784.091120 115.705 -118.8953
6833.251441 116.404 -119.5319
6882.767998 117.105 -120.6115
6932.643372 117.801 -122.1441
6982.880164 118.486 -124.1365
7033.480992 119.153 -126.5930
7084.448495 119.795 -129.5158
7135.785329 120.404 -132.9057
7187.494171 120.972 -136.7611
7239.577717 121.487 -141.0752
7292.038681 121.939 -145.8316
7344.879799 122.314 -150.9981
7398.103826 122.597 -156.5210
7451.713536 122.777 -162.3211
7505.711724 122.841 -168.2929
7560.101205 122.783 -174.3083
7614.884815 122.601 179.7742
7670.065409 122.297 174.0988
7725.645865 121.882 168.7991
7781.629080 121.368 163.9875
7838.017972 120.772 159.7473
7894.815481 120.115 156.1300
7952.024569 119.417 153.1548
8009.648217 118.695 150.8122
8067.689429 117.968 149.0688
8126.151233 117.251 147.8737
8185.036674 116.554 147.1655
8244.348824 115.886 146.8785
8304.090774 115.252 146.9489
8364.265639 114.655 147.3184
8424.876556 114.095 147.9370
8485.926684 113.571 148.7636
8547.419207 113.081 149.7661
8609.357330 112.624 150.9197
8671.744282 112.199 152.2052
8734.583316 111.803 153.6074
8797.877707 111.435 155.1130
8861.630756 111.097 156.7097
8925.845785 110.786 158.3853
8990.526143 110.502 160.1268
9055.675202 110.247 161.9202
9121.296357 110.019 163.7501
9187.393031 109.818 165.5998
9253.968668 109.644 167.4516
9321.026740 109.497 169.2867
9388.570742 109.375 171.0864
9456.604196 109.278 172.8321
9525.130648 109.202 174.5067
9594.153671 109.147 176.0945
9663.676863 109.110 177.5817
9733.703850 109.088 178.9568
9804.238280 109.078 -179.7888
9875.283832 109.076 -178.6615
9946.844210 109.081 -177.6638
10018.923143 109.087 -176.7948
10091.524390 109.092 -176.0490
10164.651736 109.092 -175.4170
10238.308993 109.085 -174.8847
10312.500000 109.066 -174.4343
10387.228626 109.035 -174.0439
10462.498767 108.988 -173.6882
10538.314345 108.926 -173.3392
10614.679315 108.848 -172.9662
10691.597657 108.754 -172.5369
10769.073381 108.647 -172.0185
10847.110526 108.530 -171.3785
10925.713161 108.408 -170.5883
11004.885382 108.286 -169.6265
11084.631318 108.173 -168.4855
11164.955126 108.077 -167.1782
11245.860993 108.005 -165.7415
11327.353138 107.961 -164.2318
11409.435808 107.947 -162.7090
11492.113283 107.957 -161.2140
11575.389873 107.988 -159.7543
11659.269920 108.036 -158.3070
11743.757796 108.104 -156.8367
11828.857906 108.196 -155.3157
11914.574686 108.322 -153.7373
12000.912606 108.493 -152.1212
12087.876166 108.718 -150.5144
12175.469900 109.008 -148.9895
12263.698373 109.370 -147.6434
12352.566187 109.808 -146.5956
12442.077974 110.319 -145.9841
12532.238400 110.896 -145.9583
12623.052165 111.522 -146.6672
12714.524005 112.170 -148.2426
12806.658687 112.807 -150.7800
12899.461015 113.391 -154.3194
12992.935827 113.880 -158.8263
13087.087996 114.229 -164.1776
13181.922430 114.399 -170.1529
13277.444074 114.362 -176.4420
13373.657907 114.105 177.3248
13470.568945 113.633 171.5288
13568.182241 112.970 166.5126
13666.502883 112.150 162.5481
13765.535996 111.219 159.8236
13865.286744 110.227 158.4404
13965.760328 109.231 158.4058
14066.961984 108.290 159.6169
14168.896989 107.465 161.8364
14271.570658 106.808 164.6768
14374.988342 106.352 167.6258
14479.155433 106.093 170.1376
14584.077362 105.981 171.7772
14689.759598 105.931 172.3683
14796.207652 105.841 172.1074
14903.427072 105.628 171.6440
15011.423448 105.268 172.1012
15120.202410 104.842 174.9046
15229.769630 104.553 -178.8512
15340.130819 104.645 -169.6826
15451.291730 105.236 -160.4217
15563.258160 106.218 -154.1169
15676.035944 107.374 -151.7698
15789.630962 108.519 -152.8692
15904.049137 109.544 -156.5600
16019.296433 110.392 -162.0951
16135.378859 111.043 -168.8930
16252.302465 111.500 -176.5176
16370.073348 111.777 175.3370
16488.697648 111.890 166.8632
16608.181548 111.852 158.1712
16728.531278 111.666 149.3347
16849.753112 111.326 140.4359
16971.853368 110.820 131.5994
17094.838414 110.138 122.9978
17218.714660 109.278 114.8347
17343.488565 108.243 107.3136
17469.166632 107.051 100.6092
17595.755415 105.721 94.8505
17723.261512 104.281 90.1148
17851.691571 102.756 86.4257
17981.052287 101.176 83.7559
18111.350404 99.568 82.0323
18242.592715 97.959 81.1448
18374.786062 96.374 80.9546
18507.937336 94.832 81.3031
18642.053479 93.350 82.0217
18777.141484 91.939 82.9415
18913.208391 90.602 83.9035
19050.261296 89.337 84.7661
19188.307342 88.135 85.4149
19327.353727 86.988 85.7731
19467.407699 85.891 85.8108
19608.476560 84.857 85.5552
19750.567664 83.929 85.1000
19893.688419 83.199 84.6069
20037.846286 82.788 84.2753
