* Measurement data measured by REW V5.20.9
* Source: Input device not selected, no input selected, L, volume: no control. Timing signal peak level -14,8 dBFS, measurement signal peak level -14,7 dBFS
* Format: 256k Log Swept Sine, 1 sweep at -12,0 dBFS using an acoustic timing reference
* Dated: 04.07.2023 20:46:14
* REW Settings:
*  C-weighting compensation: Off
*  Target level: 75.0 dB
* Note: Delay -0,0165 ms (-5,7 mm, -0,22 in) using estimated IR delay relative to Acoustic reference on  R with no timing offset
* Measurement: TA4
* Smoothing: 1/12 octave
* Frequency Step: 96 ppo
* Start Frequency: 20.187378 Hz
*
* Freq(Hz) SPL(dB) Phase(degrees)
20.187378 106.863 -84.0428
20.333664 106.888 -84.2517
20.481010 106.926 -84.5594
20.629424 106.972 -84.9363
20.778913 107.026 -85.3575
20.929486 107.085 -85.8049
21.081150 107.148 -86.2677
21.233912 107.215 -86.7399
21.387782 107.286 -87.2191
21.542767 107.358 -87.7049
21.698874 107.433 -88.1970
21.856113 107.508 -88.6949
22.014492 107.582 -89.1967
22.174018 107.656 -89.6994
22.334700 107.727 -90.1991
22.496546 107.796 -90.6919
22.659566 107.864 -91.1748
22.823766 107.930 -91.6470
22.989157 107.996 -92.1108
23.155745 108.064 -92.5721
23.323542 108.133 -93.0402
23.492554 108.206 -93.5270
23.662790 108.280 -94.0449
23.834261 108.355 -94.6050
24.006973 108.430 -95.2144
24.180938 108.502 -95.8744
24.356163 108.567 -96.5791
24.532658 108.624 -97.3151
24.710431 108.671 -98.0627
24.889493 108.706 -98.7978
25.069853 108.731 -99.4951
25.251519 108.748 -100.1316
25.434502 108.760 -100.6904
25.618811 108.772 -101.1646
25.804456 108.787 -101.5591
25.991445 108.810 -101.8910
26.179790 108.845 -102.1881
26.369500 108.891 -102.4840
26.560584 108.949 -102.8125
26.753053 109.014 -103.2012
26.946917 109.084 -103.6669
27.142185 109.153 -104.2125
27.338869 109.217 -104.8272
27.536977 109.273 -105.4892
27.736522 109.321 -106.1693
27.937512 109.360 -106.8364
28.139959 109.394 -107.4624
28.343872 109.424 -108.0270
28.549264 109.456 -108.5200
28.756143 109.492 -108.9426
28.964522 109.534 -109.3057
29.174411 109.584 -109.6271
29.385821 109.640 -109.9273
29.598763 109.701 -110.2250
29.813248 109.764 -110.5346
30.029287 109.826 -110.8651
30.246891 109.885 -111.2200
30.466073 109.940 -111.5993
30.686842 109.991 -112.0008
30.909212 110.037 -112.4222
31.133193 110.080 -112.8616
31.358797 110.121 -113.3171
31.586035 110.159 -113.7866
31.814921 110.197 -114.2671
32.045465 110.235 -114.7540
32.277680 110.272 -115.2416
32.511577 110.310 -115.7237
32.747169 110.349 -116.1950
32.984469 110.389 -116.6522
33.223488 110.429 -117.0945
33.464239 110.470 -117.5234
33.706735 110.511 -117.9423
33.950987 110.550 -118.3551
34.197010 110.588 -118.7655
34.444816 110.623 -119.1764
34.694417 110.655 -119.5902
34.945827 110.685 -120.0086
35.199059 110.713 -120.4335
35.454126 110.740 -120.8666
35.711041 110.767 -121.3091
35.969818 110.794 -121.7610
36.230470 110.822 -122.2208
36.493011 110.851 -122.6851
36.757455 110.881 -123.1494
37.023814 110.912 -123.6093
37.292104 110.943 -124.0621
37.562338 110.976 -124.5079
37.834530 111.009 -124.9499
38.108695 111.043 -125.3936
38.384846 111.077 -125.8452
38.662999 111.108 -126.3096
38.943167 111.138 -126.7886
39.225365 111.165 -127.2805
39.509608 111.189 -127.7800
39.795911 111.211 -128.2798
40.084289 111.231 -128.7722
40.374756 111.252 -129.2512
40.667328 111.275 -129.7134
40.962020 111.299 -130.1593
41.258848 111.325 -130.5917
41.557827 111.353 -131.0153
41.858972 111.380 -131.4346
42.162299 111.405 -131.8526
42.467824 111.428 -132.2703
42.775564 111.447 -132.6870
43.085533 111.464 -133.1009
43.397749 111.479 -133.5110
43.712227 111.495 -133.9169
44.028983 111.511 -134.3192
44.348036 111.530 -134.7186
44.669400 111.550 -135.1154
44.993093 111.572 -135.5100
45.319131 111.594 -135.9045
45.647532 111.617 -136.3051
45.978313 111.638 -136.7239
46.311491 111.658 -137.1768
46.647083 111.675 -137.6798
46.985107 111.689 -138.2418
47.325581 111.697 -138.8585
47.668521 111.700 -139.5088
48.013947 111.699 -140.1579
48.361876 111.696 -140.7651
48.712326 111.695 -141.2951
49.065315 111.700 -141.7284
49.420863 111.714 -142.0663
49.778987 111.736 -142.3288
50.139706 111.766 -142.5469
50.503039 111.799 -142.7531
50.869005 111.831 -142.9732
51.237623 111.861 -143.2236
51.608912 111.886 -143.5114
51.982891 111.907 -143.8365
52.359580 111.925 -144.1937
52.739000 111.941 -144.5748
53.121168 111.956 -144.9698
53.506106 111.969 -145.3701
53.893833 111.982 -145.7703
54.284370 111.993 -146.1695
54.677737 112.004 -146.5708
55.073955 112.012 -146.9774
55.473043 112.020 -147.3897
55.875024 112.026 -147.8031
56.279917 112.032 -148.2088
56.687745 112.039 -148.5980
57.098527 112.048 -148.9661
57.512287 112.058 -149.3157
57.929045 112.070 -149.6549
58.348822 112.081 -149.9946
58.771642 112.090 -150.3431
59.197525 112.096 -150.7039
59.626495 112.099 -151.0756
60.058573 112.099 -151.4536
60.493782 112.098 -151.8329
60.932145 112.098 -152.2098
61.373685 112.099 -152.5830
61.818424 112.101 -152.9526
62.266386 112.104 -153.3200
62.717593 112.108 -153.6853
63.172071 112.110 -154.0479
63.629842 112.111 -154.4061
64.090930 112.110 -154.7595
64.555359 112.108 -155.1094
65.023154 112.107 -155.4583
65.494339 112.105 -155.8082
65.968938 112.105 -156.1587
66.446976 112.105 -156.5079
66.928478 112.107 -156.8543
67.413469 112.110 -157.1985
67.901975 112.114 -157.5432
68.394021 112.117 -157.8911
68.889632 112.120 -158.2426
69.388835 112.122 -158.5957
69.891655 112.122 -158.9458
70.398118 112.123 -159.2867
70.908252 112.122 -159.6118
71.422083 112.121 -159.9158
71.939636 112.120 -160.1992
72.460941 112.118 -160.4706
72.986023 112.117 -160.7453
73.514909 112.117 -161.0394
74.047629 112.115 -161.3622
74.584208 112.113 -161.7137
75.124676 112.110 -162.0862
75.669061 112.105 -162.4701
76.217390 112.100 -162.8588
76.769692 112.095 -163.2482
77.325997 112.091 -163.6333
77.886333 112.087 -164.0054
78.450730 112.084 -164.3565
79.019216 112.082 -164.6858
79.591822 112.078 -165.0012
80.168577 112.073 -165.3126
80.749512 112.063 -165.6233
81.334656 112.051 -165.9284
81.924040 112.038 -166.2206
82.517696 112.026 -166.4974
83.115653 112.016 -166.7633
83.717943 112.005 -167.0267
84.324598 111.991 -167.2938
84.935649 111.974 -167.5651
85.551128 111.954 -167.8386
86.171066 111.936 -168.1118
86.795497 111.922 -168.3827
87.424453 111.913 -168.6495
88.057967 111.907 -168.9124
88.696071 111.902 -169.1726
89.338800 111.897 -169.4317
89.986185 111.890 -169.6939
90.638262 111.881 -169.9681
91.295065 111.868 -170.2614
91.956626 111.852 -170.5713
92.622982 111.833 -170.8888
93.294166 111.815 -171.2085
93.970214 111.796 -171.5291
94.651161 111.778 -171.8479
95.337042 111.760 -172.1608
96.027894 111.742 -172.4630
96.723752 111.725 -172.7451
97.424652 111.710 -172.9948
98.130631 111.699 -173.2094
98.841726 111.689 -173.4038
99.557974 111.678 -173.6017
100.279412 111.663 -173.8203
101.006078 111.644 -174.0618
101.738010 111.617 -174.3167
102.475245 111.585 -174.5754
103.217823 111.549 -174.8384
103.965782 111.512 -175.1137
104.719161 111.476 -175.4034
105.477999 111.443 -175.6967
106.242336 111.414 -175.9774
107.012212 111.388 -176.2338
107.787666 111.364 -176.4620
108.568740 111.342 -176.6617
109.355474 111.322 -176.8296
110.147909 111.300 -176.9581
110.946086 111.275 -177.0451
111.750047 111.245 -177.1074
112.559834 111.210 -177.1810
113.375489 111.173 -177.3031
114.197055 111.133 -177.4863
115.024574 111.092 -177.7082
115.858089 111.051 -177.9252
116.697645 111.016 -178.0949
117.543284 110.993 -178.1919
118.395051 110.984 -178.2145
119.252990 110.987 -178.1806
120.117147 110.999 -178.1147
120.987565 111.012 -178.0354
121.864291 111.024 -177.9599
122.747370 111.030 -177.9147
123.636848 111.030 -177.9258
124.532771 111.025 -177.9944
125.435187 111.017 -178.0904
126.344142 111.013 -178.1768
127.259684 111.013 -178.2392
128.181860 111.017 -178.2931
129.110718 111.023 -178.3667
130.046308 111.029 -178.4828
130.988677 111.034 -178.6483
131.937875 111.040 -178.8492
132.893951 111.047 -179.0560
133.856956 111.058 -179.2445
134.826938 111.069 -179.4139
135.803950 111.081 -179.5825
136.788041 111.093 -179.7695
137.779264 111.103 -179.9803
138.777669 111.111 179.7903
139.783309 111.114 179.5445
140.796237 111.112 179.2774
141.816504 111.103 178.9865
142.844165 111.091 178.6765
143.879273 111.077 178.3564
144.921881 111.062 178.0353
145.972045 111.046 177.7189
147.029819 111.028 177.4109
148.095257 111.010 177.1142
149.168417 110.990 176.8303
150.249353 110.968 176.5584
151.338121 110.947 176.2955
152.434780 110.924 176.0379
153.539385 110.901 175.7829
154.651995 110.877 175.5302
155.772667 110.851 175.2807
156.901460 110.825 175.0355
158.038432 110.798 174.7965
159.183644 110.770 174.5691
160.337154 110.741 174.3607
161.499023 110.712 174.1738
162.669312 110.684 174.0038
163.848081 110.656 173.8432
165.035392 110.628 173.6866
166.231306 110.601 173.5302
167.435887 110.574 173.3707
168.649196 110.546 173.2066
169.871298 110.516 173.0386
171.102255 110.486 172.8705
172.342133 110.454 172.7076
173.590995 110.422 172.5537
174.848907 110.390 172.4082
176.115934 110.358 172.2688
177.392143 110.327 172.1342
178.677599 110.296 172.0050
179.972371 110.264 171.8837
181.276525 110.233 171.7726
182.590129 110.200 171.6724
183.913252 110.167 171.5814
185.245964 110.135 171.4975
186.588332 110.102 171.4196
187.940428 110.069 171.3487
189.302322 110.037 171.2872
190.674085 110.006 171.2376
192.055788 109.976 171.2010
193.447503 109.948 171.1758
194.849303 109.921 171.1600
196.261262 109.896 171.1517
197.683452 109.873 171.1492
199.115948 109.852 171.1486
200.558824 109.831 171.1439
202.012156 109.811 171.1291
203.476019 109.792 171.1010
204.950490 109.774 171.0599
206.435646 109.758 171.0089
207.931564 109.743 170.9493
209.438322 109.729 170.8787
210.955998 109.715 170.7929
212.484672 109.701 170.6900
214.024424 109.686 170.5721
215.575333 109.669 170.4446
217.137481 109.650 170.3137
218.710948 109.629 170.1829
220.295818 109.606 170.0543
221.892172 109.581 169.9299
223.500094 109.555 169.8122
225.119668 109.528 169.7024
226.750978 109.500 169.6004
228.394109 109.472 169.5047
230.049147 109.443 169.4136
231.716178 109.413 169.3251
233.395289 109.383 169.2381
235.086567 109.352 169.1538
236.790102 109.321 169.0750
238.505980 109.291 169.0041
240.234293 109.262 168.9415
241.975130 109.235 168.8867
243.728581 109.209 168.8380
245.494739 109.183 168.7937
247.273695 109.157 168.7523
249.065542 109.131 168.7129
250.870374 109.104 168.6741
252.688284 109.076 168.6348
254.519367 109.049 168.5939
256.363720 109.021 168.5517
258.221437 108.993 168.5077
260.092616 108.965 168.4615
261.977354 108.936 168.4143
263.875750 108.907 168.3696
265.787903 108.877 168.3297
267.713911 108.847 168.2947
269.653877 108.817 168.2628
271.607900 108.787 168.2327
273.576083 108.756 168.2042
275.558528 108.725 168.1789
277.555338 108.694 168.1582
279.566619 108.663 168.1430
281.592474 108.632 168.1327
283.633009 108.600 168.1265
285.688331 108.568 168.1254
287.758546 108.536 168.1308
289.843763 108.504 168.1438
291.944090 108.472 168.1635
294.059638 108.440 168.1870
296.190515 108.410 168.2105
298.336833 108.381 168.2321
300.498705 108.352 168.2516
302.676243 108.323 168.2695
304.869559 108.294 168.2861
307.078770 108.264 168.3015
309.303989 108.234 168.3163
311.545334 108.204 168.3329
313.802919 108.173 168.3541
316.076865 108.143 168.3821
318.367288 108.114 168.4164
320.674309 108.084 168.4552
322.998047 108.055 168.4971
325.338624 108.025 168.5414
327.696162 107.995 168.5878
330.070783 107.965 168.6360
332.462612 107.935 168.6857
334.871773 107.906 168.7365
337.298392 107.876 168.7888
339.742595 107.847 168.8431
342.204510 107.818 168.8992
344.684265 107.789 168.9565
347.181989 107.759 169.0152
349.697813 107.730 169.0761
352.231868 107.700 169.1402
354.784285 107.670 169.2083
357.355198 107.640 169.2810
359.944741 107.611 169.3589
362.553049 107.581 169.4412
365.180258 107.552 169.5274
367.826505 107.524 169.6172
370.491927 107.495 169.7101
373.176665 107.467 169.8050
375.880856 107.439 169.9006
378.604644 107.410 169.9964
381.348169 107.380 170.0930
384.111575 107.351 170.1915
386.895006 107.321 170.2932
389.698607 107.291 170.3979
392.522524 107.262 170.5056
395.366904 107.233 170.6158
398.231895 107.204 170.7291
401.117648 107.176 170.8451
404.024312 107.148 170.9629
406.952038 107.121 171.0819
409.900981 107.094 171.2028
412.871292 107.068 171.3267
415.863128 107.041 171.4538
418.876643 107.015 171.5833
421.911996 106.988 171.7144
424.969344 106.962 171.8471
428.048847 106.935 171.9820
431.150666 106.909 172.1203
434.274961 106.883 172.2626
437.421897 106.857 172.4091
440.591636 106.832 172.5590
443.784345 106.806 172.7123
447.000189 106.781 172.8687
450.239337 106.756 173.0274
453.501956 106.731 173.1874
456.788219 106.705 173.3486
460.098294 106.680 173.5114
463.432356 106.656 173.6756
466.790578 106.631 173.8409
470.173135 106.607 174.0074
473.580203 106.583 174.1756
477.011961 106.559 174.3467
480.468586 106.536 174.5217
483.950259 106.513 174.7013
487.457163 106.490 174.8852
490.989478 106.468 175.0726
494.547390 106.446 175.2632
498.131084 106.424 175.4568
501.740748 106.402 175.6534
505.376568 106.381 175.8535
509.038735 106.359 176.0569
512.727439 106.338 176.2630
516.442874 106.318 176.4711
520.185232 106.298 176.6802
523.954708 106.278 176.8892
527.751500 106.257 177.0982
531.575805 106.237 177.3082
535.427822 106.217 177.5199
539.307753 106.197 177.7341
543.215800 106.178 177.9509
547.152165 106.158 178.1707
551.117055 106.139 178.3943
555.110677 106.120 178.6225
559.133237 106.101 178.8560
563.184947 106.083 179.0942
567.266018 106.066 179.3360
571.376661 106.049 179.5800
575.517092 106.033 179.8255
579.687526 106.016 -179.9279
583.888181 106.000 -179.6794
588.119275 105.984 -179.4281
592.381030 105.968 -179.1728
596.673667 105.953 -178.9134
600.997410 105.938 -178.6506
605.352485 105.924 -178.3855
609.739119 105.910 -178.1183
614.157540 105.897 -177.8483
618.607979 105.884 -177.5746
623.090667 105.871 -177.2964
627.605839 105.859 -177.0144
632.153730 105.846 -176.7297
636.734576 105.834 -176.4428
641.348617 105.822 -176.1530
645.996094 105.811 -175.8592
650.677248 105.800 -175.5615
655.392323 105.790 -175.2609
660.141566 105.781 -174.9594
664.925224 105.772 -174.6583
669.743546 105.764 -174.3571
674.596784 105.756 -174.0535
679.485191 105.749 -173.7451
684.409020 105.743 -173.4305
689.368530 105.737 -173.1103
694.363979 105.732 -172.7855
699.395626 105.728 -172.4569
704.463736 105.725 -172.1249
709.568570 105.722 -171.7897
714.710396 105.720 -171.4516
719.889483 105.719 -171.1115
725.106099 105.718 -170.7703
730.360516 105.718 -170.4282
735.653010 105.718 -170.0846
740.983855 105.719 -169.7385
746.353329 105.721 -169.3888
751.761713 105.724 -169.0352
757.209288 105.728 -168.6784
762.696339 105.732 -168.3200
768.223151 105.738 -167.9618
773.790013 105.745 -167.6055
779.397214 105.752 -167.2521
785.045047 105.760 -166.9027
790.733808 105.768 -166.5581
796.463791 105.776 -166.2186
802.235296 105.783 -165.8830
808.048623 105.788 -165.5470
813.904077 105.790 -165.2011
819.801961 105.790 -164.8321
825.742584 105.788 -164.4266
831.726255 105.789 -163.9773
837.753287 105.794 -163.4898
843.823992 105.806 -162.9813
849.938689 105.824 -162.4730
856.097695 105.849 -161.9807
862.301332 105.877 -161.5114
868.549922 105.908 -161.0654
874.843793 105.939 -160.6386
881.183272 105.971 -160.2251
887.568689 106.002 -159.8184
894.000378 106.032 -159.4112
900.478673 106.061 -158.9967
907.003913 106.090 -158.5690
913.576437 106.121 -158.1254
920.196588 106.154 -157.6676
926.864712 106.191 -157.2016
933.581156 106.233 -156.7364
940.346270 106.278 -156.2800
947.160407 106.327 -155.8371
954.023921 106.378 -155.4093
960.937172 106.431 -154.9961
967.900519 106.485 -154.5960
974.914325 106.541 -154.2079
981.978956 106.598 -153.8304
989.094780 106.656 -153.4623
996.262169 106.715 -153.1030
1003.481495 106.776 -152.7523
1010.753136 106.837 -152.4102
1018.077470 106.900 -152.0764
1025.454879 106.964 -151.7509
1032.885748 107.029 -151.4338
1040.370463 107.095 -151.1258
1047.909417 107.163 -150.8278
1055.503000 107.231 -150.5406
1063.151610 107.301 -150.2641
1070.855645 107.371 -149.9980
1078.615506 107.442 -149.7423
1086.431599 107.514 -149.4972
1094.304330 107.586 -149.2631
1102.234110 107.659 -149.0402
1110.221353 107.733 -148.8285
1118.266475 107.806 -148.6275
1126.369895 107.881 -148.4369
1134.532035 107.955 -148.2566
1142.753322 108.030 -148.0866
1151.034184 108.105 -147.9273
1159.375052 108.181 -147.7790
1167.776361 108.257 -147.6417
1176.238550 108.333 -147.5152
1184.762060 108.410 -147.3992
1193.347334 108.486 -147.2931
1201.994821 108.563 -147.1964
1210.704971 108.639 -147.1086
1219.478238 108.715 -147.0289
1228.315080 108.791 -146.9569
1237.215957 108.867 -146.8922
1246.181334 108.943 -146.8346
1255.211678 109.018 -146.7842
1264.307459 109.093 -146.7413
1273.469152 109.169 -146.7057
1282.697235 109.244 -146.6778
1291.992188 109.319 -146.6581
1301.354495 109.394 -146.6471
1310.784647 109.468 -146.6452
1320.283132 109.542 -146.6515
1329.850448 109.614 -146.6632
1339.487093 109.686 -146.6765
1349.193569 109.757 -146.6879
1358.970381 109.828 -146.6961
1368.818041 109.900 -146.7027
1378.737061 109.974 -146.7113
1388.727958 110.049 -146.7255
1398.791253 110.125 -146.7483
1408.927471 110.202 -146.7812
1419.137140 110.280 -146.8246
1429.420793 110.357 -146.8779
1439.778965 110.436 -146.9406
1450.212197 110.514 -147.0123
1460.721033 110.593 -147.0927
1471.306019 110.672 -147.1818
1481.967709 110.751 -147.2790
1492.706658 110.831 -147.3842
1503.523426 110.911 -147.4976
1514.418576 110.992 -147.6196
1525.392678 111.073 -147.7504
1536.446302 111.154 -147.8908
1547.580025 111.236 -148.0414
1558.794428 111.318 -148.2030
1570.090095 111.401 -148.3766
1581.467615 111.484 -148.5628
1592.927581 111.567 -148.7618
1604.470591 111.651 -148.9740
1616.097246 111.735 -149.1997
1627.808153 111.819 -149.4396
1639.603922 111.904 -149.6943
1651.485168 111.988 -149.9644
1663.452510 112.073 -150.2506
1675.506573 112.157 -150.5536
1687.647984 112.241 -150.8740
1699.877377 112.325 -151.2125
1712.195390 112.409 -151.5697
1724.602663 112.492 -151.9460
1737.099845 112.575 -152.3420
1749.687587 112.657 -152.7579
1762.366544 112.738 -153.1943
1775.137379 112.818 -153.6513
1788.000756 112.897 -154.1292
1800.957346 112.975 -154.6281
1814.007826 113.052 -155.1481
1827.152874 113.126 -155.6893
1840.393177 113.199 -156.2518
1853.729425 113.270 -156.8354
1867.162312 113.339 -157.4401
1880.692540 113.405 -158.0657
1894.320813 113.468 -158.7118
1908.047843 113.528 -159.3780
1921.874344 113.585 -160.0635
1935.801038 113.639 -160.7675
1949.828650 113.689 -161.4890
1963.957912 113.735 -162.2273
1978.189561 113.777 -162.9813
1992.524338 113.815 -163.7501
2006.962991 113.849 -164.5321
2021.506272 113.878 -165.3258
2036.154940 113.902 -166.1292
2050.909758 113.922 -166.9407
2065.771495 113.936 -167.7584
2080.740927 113.946 -168.5805
2095.818833 113.950 -169.4052
2111.006001 113.950 -170.2309
2126.303220 113.944 -171.0559
2141.711290 113.934 -171.8785
2157.231013 113.918 -172.6970
2172.863198 113.898 -173.5095
2188.608660 113.872 -174.3141
2204.468221 113.841 -175.1088
2220.442706 113.806 -175.8917
2236.532950 113.765 -176.6609
2252.739789 113.720 -177.4148
2269.064070 113.671 -178.1520
2285.506644 113.617 -178.8715
2302.068367 113.559 -179.5722
2318.750104 113.497 179.7471
2335.552723 113.431 179.0874
2352.477101 113.363 178.4499
2369.524119 113.291 177.8356
2386.694668 113.216 177.2454
2403.989641 113.138 176.6796
2421.409941 113.058 176.1383
2438.956476 112.975 175.6216
2456.630160 112.890 175.1295
2474.431915 112.803 174.6620
2492.362668 112.715 174.2194
2510.423356 112.624 173.8018
2528.614918 112.532 173.4096
2546.938304 112.439 173.0427
2565.394469 112.344 172.7012
2583.984375 112.248 172.3853
2602.708991 112.152 172.0952
2621.569293 112.054 171.8308
2640.566265 111.955 171.5923
2659.700897 111.856 171.3795
2678.974186 111.756 171.1927
2698.387137 111.656 171.0321
2717.940763 111.555 170.8980
2737.636082 111.454 170.7909
2757.474121 111.353 170.7111
2777.455915 111.252 170.6588
2797.582506 111.151 170.6345
2817.854942 111.050 170.6387
2838.274281 110.949 170.6720
2858.841586 110.850 170.7349
2879.557931 110.751 170.8274
2900.424394 110.653 170.9499
2921.442065 110.557 171.1026
2942.612039 110.462 171.2857
2963.935418 110.370 171.4995
2985.413316 110.280 171.7438
3007.046852 110.193 172.0180
3028.837153 110.109 172.3210
3050.785356 110.029 172.6514
3072.892604 109.953 173.0073
3095.160050 109.881 173.3864
3117.588856 109.813 173.7862
3140.180190 109.751 174.2039
3162.935230 109.693 174.6367
3185.855163 109.641 175.0821
3208.941182 109.593 175.5380
3232.194493 109.551 176.0021
3255.616307 109.514 176.4727
3279.207844 109.481 176.9477
3302.970336 109.454 177.4255
3326.905021 109.432 177.9043
3351.013146 109.415 178.3823
3375.295969 109.403 178.8575
3399.754755 109.397 179.3281
3424.390779 109.396 179.7916
3449.205326 109.401 -179.7546
3474.199690 109.411 -179.3138
3499.375173 109.427 -178.8891
3524.733088 109.449 -178.4838
3550.274757 109.475 -178.1012
3576.001511 109.508 -177.7447
3601.914692 109.545 -177.4175
3628.015651 109.588 -177.1231
3654.305748 109.635 -176.8647
3680.786354 109.687 -176.6461
3707.458849 109.743 -176.4710
3734.324624 109.804 -176.3437
3761.385080 109.869 -176.2691
3788.641627 109.937 -176.2522
3816.095686 110.008 -176.2980
3843.748688 110.081 -176.4119
3871.602076 110.155 -176.5994
3899.657300 110.230 -176.8664
3927.915825 110.305 -177.2191
3956.379122 110.378 -177.6637
3985.048676 110.448 -178.2063
4013.925981 110.513 -178.8521
4043.012544 110.572 -179.6062
4072.309879 110.622 179.5271
4101.819515 110.660 178.5448
4131.542990 110.684 177.4451
4161.481854 110.690 176.2282
4191.637667 110.674 174.8972
4222.012001 110.633 173.4583
4252.606441 110.562 171.9224
4283.422580 110.456 170.3056
4314.462026 110.310 168.6309
4345.726396 110.119 166.9302
4377.217321 109.875 165.2467
4408.936442 109.574 163.6385
4440.885413 109.211 162.1831
4473.065899 108.780 160.9839
4505.479579 108.279 160.1788
4538.128141 107.712 159.9499
4571.013288 107.089 160.5320
4604.136735 106.432 162.2091
4637.500207 105.789 165.2749
4671.105446 105.228 169.9173
4704.954201 104.836 176.0088
4739.048239 104.690 -177.0784
4773.389336 104.815 -170.3568
4807.979283 105.169 -164.7567
4842.819883 105.665 -160.7373
4877.912952 106.217 -158.2888
4913.260320 106.758 -157.1510
4948.863830 107.248 -156.9995
4984.725337 107.665 -157.5364
5020.846712 108.005 -158.5179
5057.229836 108.266 -159.7551
5093.876609 108.456 -161.1052
5130.788938 108.581 -162.4623
5167.968750 108.650 -163.7493
5205.417982 108.673 -164.9113
5243.138586 108.658 -165.9104
5281.132530 108.613 -166.7231
5319.401793 108.547 -167.3375
5357.948371 108.467 -167.7524
5396.774274 108.380 -167.9765
5435.881525 108.290 -168.0278
5475.272163 108.202 -167.9297
5514.948243 108.116 -167.7046
5554.911831 108.035 -167.3659
5595.165012 107.957 -166.9147
5635.709884 107.884 -166.3463
5676.548561 107.819 -165.6590
5717.683172 107.765 -164.8580
5759.115861 107.724 -163.9551
5800.848789 107.700 -162.9660
5842.884130 107.694 -161.9078
5885.224077 107.708 -160.7978
5927.870837 107.742 -159.6524
5970.826633 107.797 -158.4874
6014.093704 107.875 -157.3189
6057.674306 107.974 -156.1642
6101.570711 108.097 -155.0421
6145.785208 108.241 -153.9733
6190.320101 108.408 -152.9800
6235.177712 108.596 -152.0854
6280.360380 108.804 -151.3117
6325.870460 109.028 -150.6797
6371.710325 109.266 -150.2076
6417.882365 109.514 -149.9115
6464.388986 109.770 -149.8046
6511.232613 110.028 -149.8960
6558.415689 110.283 -150.1897
6605.940673 110.531 -150.6827
6653.810042 110.767 -151.3649
6702.026292 110.985 -152.2181
6750.591937 111.182 -153.2172
6799.509509 111.356 -154.3309
6848.781558 111.503 -155.5239
6898.410653 111.624 -156.7581
6948.399380 111.719 -157.9950
6998.750346 111.791 -159.1981
7049.466176 111.842 -160.3347
7100.549514 111.878 -161.3787
7152.003023 111.904 -162.3116
7203.829385 111.927 -163.1244
7256.031302 111.952 -163.8172
7308.611496 111.987 -164.3996
7361.572708 112.038 -164.8904
7414.917698 112.110 -165.3178
7468.649249 112.210 -165.7199
7522.770160 112.341 -166.1447
7577.283253 112.506 -166.6492
7632.191371 112.707 -167.2990
7687.497376 112.943 -168.1655
7743.204151 113.209 -169.3237
7799.314600 113.498 -170.8468
7855.831649 113.799 -172.8009
7912.758244 114.096 -175.2376
7970.097352 114.373 -178.1870
8027.851962 114.609 178.3492
8086.025087 114.782 174.4044
8144.619758 114.873 170.0495
8203.639030 114.865 165.3929
8263.085980 114.743 160.5742
8322.963708 114.501 155.7542
8383.275334 114.139 151.0996
8444.024002 113.661 146.7692
8505.212881 113.081 142.9005
8566.845160 112.414 139.6021
8628.924051 111.679 136.9485
8691.452792 110.898 134.9804
8754.434642 110.089 133.7056
8817.872884 109.273 133.1018
8881.770826 108.468 133.1224
8946.131799 107.686 133.7061
9010.959157 106.938 134.7901
9076.256282 106.231 136.3178
9142.026576 105.571 138.2383
9208.273470 104.963 140.5032
9275.000415 104.409 143.0647
9342.210891 103.913 145.8746
9409.908403 103.478 148.8834
9478.096478 103.106 152.0394
9546.778672 102.797 155.2876
9615.958566 102.551 158.5707
9685.639765 102.367 161.8298
9755.825904 102.243 165.0079
9826.520640 102.174 168.0532
9897.727659 102.154 170.9224
9969.450674 102.178 173.5814
10041.693423 102.239 176.0051
10114.459673 102.331 178.1760
10187.753217 102.446 -179.9161
10261.577877 102.578 -178.2759
10335.937500 102.720 -176.9027
10410.835964 102.866 -175.7904
10486.277173 103.009 -174.9270
10562.265060 103.145 -174.2941
10638.803587 103.266 -173.8680
10715.896743 103.370 -173.6192
10793.548548 103.452 -173.5138
10871.763050 103.510 -173.5139
10950.544327 103.543 -173.5791
11029.896485 103.551 -173.6685
11109.823662 103.535 -173.7425
11190.330024 103.497 -173.7653
11271.419768 103.441 -173.7070
11353.097122 103.372 -173.5460
11435.366344 103.294 -173.2697
11518.231722 103.211 -172.8730
11601.697577 103.127 -172.3544
11685.768261 103.045 -171.7118
11770.448155 102.968 -170.9417
11855.741674 102.900 -170.0418
11941.653265 102.845 -169.0132
12028.187408 102.808 -167.8617
12115.348612 102.792 -166.5977
12203.141422 102.802 -165.2356
12291.570415 102.842 -163.7935
12380.640201 102.916 -162.2933
12470.355424 103.029 -160.7601
12560.720760 103.184 -159.2229
12651.740920 103.385 -157.7145
12743.420650 103.638 -156.2738
12835.764729 103.945 -154.9470
12928.777972 104.311 -153.7905
13022.465227 104.738 -152.8728
13116.831378 105.226 -152.2759
13211.881345 105.774 -152.0946
13307.620084 106.373 -152.4326
13404.052584 107.013 -153.3946
13501.183875 107.674 -155.0756
13599.019019 108.334 -157.5491
13697.563116 108.963 -160.8554
13796.821305 109.532 -164.9896
13896.798760 110.007 -169.8917
13997.500692 110.359 -175.4396
14098.932352 110.564 178.5499
14201.099028 110.606 172.3087
14304.006046 110.484 166.0928
14407.658770 110.205 160.1511
14512.062604 109.789 154.6966
14617.222992 109.267 149.8853
14723.145416 108.671 145.8076
14829.835397 108.038 142.4853
14937.298497 107.403 139.8759
15045.540320 106.801 137.8795
15154.566507 106.260 136.3475
15264.382743 105.800 135.0940
15374.994752 105.433 133.9108
15486.408302 105.161 132.5844
15598.629201 104.971 130.9146
15711.663298 104.842 128.7332
15825.516487 104.738 125.9252
15940.194703 104.618 122.4515
16055.703925 104.435 118.3701
16172.050174 104.143 113.8523
16289.239516 103.704 109.1828
16407.278061 103.098 104.7382
16526.171961 102.325 100.9388
16645.927415 101.408 98.1838
16766.550667 100.399 96.7661
16888.048005 99.371 96.7524
17010.425762 98.415 97.8520
17133.690320 97.611 99.4151
17257.848103 96.990 100.6898
17382.905584 96.518 101.1795
17508.869284 96.125 100.7852
17635.745768 95.749 99.6727
17763.541652 95.352 98.0618
17892.263597 94.918 96.0984
18021.918315 94.441 93.8340
18152.512564 93.911 91.2747
18284.053153 93.308 88.4515
18416.546939 92.608 85.4763
18550.000830 91.783 82.5597
18684.421783 90.818 79.9953
18819.816805 89.707 78.1275
18956.192956 88.459 77.3195
19093.557344 87.098 77.9234
19231.917131 85.659 80.2417
19371.279531 84.194 84.4378
19511.651807 82.775 90.3388
19653.041280 81.506 97.1432
19795.455318 80.523 103.2953
19938.901348 79.978 106.9339
