* Measurement data measured by REW V5.20.9
* Source: Input device not selected, no input selected, L, volume: no control. Timing signal peak level -41,9 dBFS, measurement signal peak level -9,5 dBFS
* Format: 256k Log Swept Sine, 1 sweep at -12,0 dBFS using an acoustic timing reference
* Dated: 12.03.2023 17:09:29
* REW Settings:
*  C-weighting compensation: Off
*  Target level: 75.0 dB
* Note: Delay -0,0235 ms (-8,1 mm, -0,32 in) using estimated IR delay relative to Acoustic reference on  L with no timing offset
* Measurement: TA3 L
* Smoothing: 1/12 octave
* Frequency Step: 96 ppo
* Start Frequency: 20.141602 Hz
*
* Freq(Hz) SPL(dB) Phase(degrees)
20.141602 114.687 -90.7840
20.287556 114.705 -90.8680
20.434568 114.732 -91.0022
20.582645 114.768 -91.1888
20.731796 114.810 -91.4312
20.882027 114.856 -91.7334
21.033346 114.905 -92.0974
21.185763 114.954 -92.5221
21.339284 115.003 -93.0022
21.493917 115.049 -93.5292
21.649671 115.092 -94.0914
21.806553 115.132 -94.6761
21.964572 115.169 -95.2703
22.123737 115.205 -95.8624
22.284054 115.240 -96.4438
22.445534 115.276 -97.0088
22.608183 115.313 -97.5555
22.772012 115.354 -98.0850
22.937027 115.397 -98.6010
23.103238 115.444 -99.1084
23.270654 115.493 -99.6122
23.439282 115.544 -100.1164
23.609133 115.595 -100.6229
23.780215 115.645 -101.1313
23.952536 115.694 -101.6390
24.126106 115.740 -102.1412
24.300934 115.784 -102.6326
24.477028 115.826 -103.1073
24.654399 115.867 -103.5611
24.833055 115.907 -103.9914
25.013005 115.949 -104.3987
25.194260 115.993 -104.7869
25.376828 116.041 -105.1628
25.560719 116.094 -105.5362
25.745942 116.151 -105.9183
25.932508 116.212 -106.3209
26.120426 116.276 -106.7541
26.309705 116.341 -107.2257
26.500356 116.406 -107.7391
26.692388 116.467 -108.2929
26.885812 116.524 -108.8808
27.080638 116.574 -109.4922
27.276876 116.617 -110.1133
27.474535 116.652 -110.7291
27.673627 116.683 -111.3258
27.874161 116.709 -111.8928
28.076149 116.734 -112.4245
28.279600 116.759 -112.9218
28.484526 116.788 -113.3911
28.690937 116.822 -113.8437
28.898843 116.860 -114.2923
29.108256 116.901 -114.7486
29.319186 116.945 -115.2201
29.531645 116.989 -115.7086
29.745644 117.031 -116.2100
29.961193 117.071 -116.7163
30.178304 117.108 -117.2176
30.396989 117.143 -117.7057
30.617258 117.178 -118.1768
30.839123 117.214 -118.6320
31.062596 117.253 -119.0776
31.287688 117.294 -119.5220
31.514412 117.338 -119.9731
31.742778 117.383 -120.4347
31.972800 117.427 -120.9054
32.204488 117.468 -121.3783
32.437855 117.507 -121.8439
32.672913 117.544 -122.2930
32.909674 117.579 -122.7205
33.148151 117.614 -123.1273
33.388356 117.650 -123.5204
33.630302 117.687 -123.9107
33.874001 117.724 -124.3087
34.119466 117.759 -124.7215
34.366710 117.792 -125.1498
34.615745 117.820 -125.5890
34.866585 117.845 -126.0310
35.119243 117.867 -126.4687
35.373731 117.889 -126.8991
35.630064 117.913 -127.3252
35.888254 117.940 -127.7545
36.148315 117.970 -128.1963
36.410261 118.002 -128.6569
36.674104 118.035 -129.1366
36.939860 118.066 -129.6287
37.207542 118.094 -130.1221
37.477163 118.118 -130.6044
37.748738 118.139 -131.0668
38.022281 118.158 -131.5066
38.297806 118.176 -131.9271
38.575327 118.195 -132.3358
38.854860 118.215 -132.7412
39.136419 118.234 -133.1499
39.420017 118.254 -133.5650
39.705671 118.275 -133.9872
39.993395 118.296 -134.4161
40.283203 118.318 -134.8518
40.575112 118.342 -135.2947
40.869136 118.366 -135.7451
41.165290 118.390 -136.2016
41.463591 118.412 -136.6601
41.764053 118.432 -137.1148
42.066693 118.449 -137.5600
42.371525 118.465 -137.9922
42.678567 118.480 -138.4118
42.987834 118.495 -138.8228
43.299341 118.511 -139.2305
43.613106 118.526 -139.6393
43.929145 118.542 -140.0509
44.247473 118.557 -140.4646
44.568109 118.572 -140.8788
44.891068 118.588 -141.2932
45.216367 118.604 -141.7101
45.544023 118.620 -142.1325
45.874054 118.638 -142.5621
46.206476 118.655 -142.9960
46.541307 118.672 -143.4255
46.878565 118.687 -143.8384
47.218266 118.703 -144.2238
47.560429 118.720 -144.5779
47.905072 118.738 -144.9070
48.252212 118.758 -145.2264
48.601867 118.779 -145.5544
48.954056 118.796 -145.9059
49.308798 118.809 -146.2865
49.666109 118.815 -146.6933
50.026010 118.817 -147.1174
50.388520 118.815 -147.5495
50.753656 118.814 -147.9833
51.121437 118.814 -148.4160
51.491884 118.817 -148.8459
51.865016 118.822 -149.2704
52.240851 118.829 -149.6857
52.619410 118.837 -150.0890
53.000712 118.843 -150.4797
53.384777 118.849 -150.8607
53.771625 118.854 -151.2363
54.161276 118.858 -151.6100
54.553751 118.861 -151.9834
54.949070 118.864 -152.3565
55.347254 118.868 -152.7289
55.748323 118.874 -153.1010
56.152298 118.880 -153.4731
56.559201 118.887 -153.8450
56.969052 118.893 -154.2157
57.381873 118.897 -154.5847
57.797686 118.901 -154.9531
58.216512 118.904 -155.3236
58.638373 118.905 -155.6983
59.063291 118.905 -156.0776
59.491288 118.905 -156.4585
59.922386 118.905 -156.8362
60.356608 118.905 -157.2066
60.793977 118.906 -157.5678
61.234515 118.908 -157.9210
61.678246 118.911 -158.2684
62.125192 118.913 -158.6124
62.575377 118.914 -158.9551
63.028824 118.913 -159.2978
63.485557 118.910 -159.6417
63.945599 118.905 -159.9872
64.408975 118.900 -160.3340
64.875709 118.895 -160.6802
65.345825 118.890 -161.0237
65.819348 118.886 -161.3627
66.296302 118.883 -161.6965
66.776713 118.879 -162.0257
67.260604 118.876 -162.3512
67.748002 118.871 -162.6743
68.238932 118.865 -162.9958
68.733420 118.858 -163.3162
69.231490 118.850 -163.6348
69.733170 118.842 -163.9499
70.238485 118.834 -164.2587
70.747463 118.825 -164.5586
71.260128 118.818 -164.8491
71.776508 118.811 -165.1313
72.296630 118.805 -165.4083
72.820521 118.801 -165.6826
73.348209 118.796 -165.9558
73.879720 118.793 -166.2283
74.415083 118.789 -166.5007
74.954326 118.787 -166.7738
75.497475 118.785 -167.0493
76.044561 118.785 -167.3291
76.595612 118.785 -167.6150
77.150655 118.785 -167.9086
77.709720 118.786 -168.2099
78.272837 118.785 -168.5182
78.840034 118.784 -168.8325
79.411342 118.781 -169.1514
79.986789 118.776 -169.4734
80.566406 118.770 -169.7967
81.150224 118.763 -170.1192
81.738272 118.755 -170.4395
82.330581 118.746 -170.7569
82.927182 118.736 -171.0717
83.528107 118.726 -171.3847
84.133386 118.715 -171.6974
84.743051 118.703 -172.0113
85.357134 118.691 -172.3265
85.975667 118.679 -172.6413
86.598682 118.667 -172.9530
87.226212 118.654 -173.2598
87.858289 118.642 -173.5614
88.494946 118.629 -173.8587
89.136217 118.616 -174.1533
89.782135 118.602 -174.4463
90.432733 118.588 -174.7379
91.088046 118.573 -175.0270
91.748108 118.556 -175.3129
92.412952 118.539 -175.5943
93.082615 118.520 -175.8693
93.757130 118.501 -176.1355
94.436533 118.483 -176.3933
95.120859 118.465 -176.6458
95.810144 118.446 -176.8971
96.504423 118.426 -177.1490
97.203734 118.406 -177.4019
97.908112 118.385 -177.6558
98.617595 118.364 -177.9103
99.332219 118.344 -178.1638
100.052021 118.324 -178.4151
100.777039 118.306 -178.6639
101.507311 118.287 -178.9095
102.242875 118.268 -179.1492
102.983769 118.247 -179.3795
103.730032 118.224 -179.5983
104.481702 118.199 -179.8070
105.238820 118.173 179.9920
106.001424 118.146 179.7979
106.769554 118.122 179.6115
107.543250 118.100 179.4340
108.322553 118.080 179.2662
109.107503 118.062 179.1063
109.898141 118.044 178.9463
110.694508 118.025 178.7759
111.496646 118.006 178.5899
112.304596 117.987 178.3926
113.118402 117.968 178.1951
113.938104 117.948 178.0084
114.763747 117.927 177.8362
115.595372 117.907 177.6764
116.433024 117.887 177.5246
117.276746 117.868 177.3772
118.126581 117.850 177.2312
118.982575 117.832 177.0835
119.844772 117.813 176.9325
120.713217 117.795 176.7795
121.587954 117.776 176.6261
122.469031 117.758 176.4708
123.356492 117.739 176.3114
124.250384 117.722 176.1494
125.150753 117.705 175.9911
126.057647 117.689 175.8465
126.971113 117.674 175.7254
127.891198 117.660 175.6297
128.817950 117.647 175.5502
129.751418 117.637 175.4738
130.691651 117.628 175.3893
131.638696 117.623 175.2855
132.592604 117.621 175.1527
133.553425 117.620 174.9877
134.521208 117.620 174.7947
135.496004 117.620 174.5801
136.477864 117.619 174.3495
137.466839 117.617 174.1061
138.462981 117.612 173.8534
139.466340 117.606 173.5950
140.476971 117.597 173.3342
141.494925 117.587 173.0720
142.520256 117.575 172.8090
143.553016 117.560 172.5471
144.593260 117.543 172.2898
145.641043 117.524 172.0398
146.696418 117.503 171.7970
147.759441 117.481 171.5584
148.830166 117.458 171.3201
149.908651 117.434 171.0791
150.994951 117.410 170.8353
152.089123 117.384 170.5922
153.191223 117.357 170.3547
154.301310 117.330 170.1267
155.419441 117.301 169.9087
156.545674 117.272 169.6984
157.680069 117.243 169.4929
158.822683 117.213 169.2910
159.973578 117.182 169.0931
161.132813 117.150 168.9001
162.300447 117.118 168.7126
163.476543 117.085 168.5305
164.661162 117.052 168.3535
165.854364 117.020 168.1816
167.056213 116.988 168.0155
168.266772 116.956 167.8546
169.486102 116.924 167.6977
170.714268 116.891 167.5436
171.951334 116.858 167.3913
173.197364 116.823 167.2405
174.452424 116.788 167.0920
175.716578 116.753 166.9480
176.989893 116.717 166.8108
178.272434 116.681 166.6809
179.564270 116.646 166.5583
180.865467 116.610 166.4431
182.176092 116.574 166.3362
183.496216 116.538 166.2384
184.825905 116.501 166.1502
186.165229 116.465 166.0714
187.514259 116.428 166.0021
188.873065 116.391 165.9429
190.241717 116.356 165.8947
191.620287 116.322 165.8584
193.008847 116.289 165.8335
194.407468 116.258 165.8183
195.816225 116.229 165.8094
197.235190 116.202 165.8028
198.664438 116.178 165.7941
200.104042 116.155 165.7791
201.554078 116.135 165.7542
203.014622 116.117 165.7169
204.485750 116.100 165.6656
205.967538 116.084 165.5990
207.460064 116.068 165.5170
208.963405 116.051 165.4202
210.477640 116.033 165.3109
212.002848 116.013 165.1915
213.539108 115.992 165.0655
215.086500 115.968 164.9356
216.645105 115.943 164.8047
218.215005 115.917 164.6748
219.796281 115.888 164.5480
221.389015 115.859 164.4255
222.993292 115.828 164.3082
224.609193 115.796 164.1957
226.236804 115.763 164.0881
227.876209 115.730 163.9851
229.527494 115.696 163.8870
231.190745 115.662 163.7942
232.866048 115.628 163.7070
234.553491 115.593 163.6259
236.253163 115.558 163.5510
237.965150 115.522 163.4819
239.689544 115.487 163.4185
241.426433 115.452 163.3600
243.175909 115.416 163.3062
244.938062 115.381 163.2564
246.712984 115.346 163.2108
248.500768 115.310 163.1693
250.301507 115.274 163.1323
252.115295 115.239 163.0994
253.942226 115.203 163.0695
255.782396 115.167 163.0423
257.635901 115.132 163.0177
259.502837 115.097 162.9957
261.383301 115.062 162.9761
263.277392 115.027 162.9587
265.185209 114.992 162.9432
267.106850 114.957 162.9307
269.042417 114.923 162.9217
270.992009 114.888 162.9166
272.955729 114.853 162.9148
274.933678 114.818 162.9160
276.925961 114.784 162.9196
278.932681 114.749 162.9253
280.953942 114.715 162.9330
282.989850 114.680 162.9424
285.040511 114.646 162.9536
287.106032 114.611 162.9673
289.186521 114.577 162.9838
291.282086 114.543 163.0035
293.392836 114.510 163.0259
295.518881 114.476 163.0508
297.660333 114.443 163.0786
299.817302 114.409 163.1098
301.989902 114.376 163.1447
304.178245 114.342 163.1830
306.382446 114.308 163.2236
308.602620 114.274 163.2651
310.838882 114.240 163.3069
313.091348 114.206 163.3490
315.360137 114.173 163.3928
317.645367 114.139 163.4394
319.947156 114.105 163.4891
322.265625 114.072 163.5421
324.600895 114.039 163.5981
326.953086 114.006 163.6572
329.322323 113.972 163.7195
331.708729 113.939 163.7849
334.112427 113.907 163.8531
336.533543 113.874 163.9240
338.972204 113.841 163.9974
341.428536 113.809 164.0731
343.902668 113.776 164.1507
346.394729 113.744 164.2302
348.904848 113.712 164.3112
351.433156 113.680 164.3937
353.979786 113.648 164.4781
356.544869 113.616 164.5648
359.128540 113.585 164.6545
361.730934 113.553 164.7479
364.352185 113.522 164.8453
366.992431 113.491 164.9471
369.651810 113.460 165.0529
372.330459 113.429 165.1619
375.028519 113.399 165.2733
377.746130 113.368 165.3859
380.483434 113.338 165.4990
383.240574 113.308 165.6122
386.017693 113.278 165.7256
388.814937 113.249 165.8398
391.632450 113.219 165.9558
394.470380 113.189 166.0748
397.328875 113.160 166.1976
400.208084 113.130 166.3250
403.108157 113.101 166.4568
406.029245 113.073 166.5920
408.971500 113.044 166.7292
411.935076 113.016 166.8676
414.920127 112.988 167.0068
417.926810 112.960 167.1469
420.955280 112.932 167.2882
424.005695 112.904 167.4314
427.078215 112.877 167.5771
430.173000 112.850 167.7258
433.290211 112.823 167.8778
436.430010 112.796 168.0333
439.592562 112.770 168.1924
442.778031 112.743 168.3550
445.986583 112.717 168.5211
449.218386 112.692 168.6897
452.473607 112.667 168.8601
455.752418 112.642 169.0315
459.054987 112.617 169.2036
462.381489 112.593 169.3767
465.732096 112.568 169.5516
469.106983 112.544 169.7290
472.506325 112.520 169.9092
475.930301 112.496 170.0925
479.379088 112.473 170.2787
482.852867 112.449 170.4679
486.351817 112.426 170.6594
489.876123 112.403 170.8526
493.425968 112.381 171.0468
497.001536 112.359 171.2418
500.603014 112.337 171.4380
504.230589 112.316 171.6365
507.884452 112.295 171.8379
511.564792 112.274 172.0423
515.271802 112.254 172.2495
519.005673 112.234 172.4594
522.766602 112.214 172.6721
526.554785 112.194 172.8878
530.370418 112.175 173.1064
534.213700 112.156 173.3277
538.084833 112.138 173.5512
541.984018 112.120 173.7766
545.911457 112.102 174.0039
549.867357 112.085 174.2330
553.851922 112.067 174.4639
557.865362 112.050 174.6967
561.907884 112.034 174.9316
565.979700 112.017 175.1689
570.081022 112.002 175.4091
574.212064 111.986 175.6519
578.373042 111.971 175.8970
582.564171 111.957 176.1440
586.785671 111.943 176.3925
591.037762 111.929 176.6424
595.320665 111.916 176.8937
599.634604 111.904 177.1465
603.979804 111.892 177.4012
608.356491 111.880 177.6583
612.764893 111.869 177.9184
617.205240 111.859 178.1818
621.677763 111.849 178.4485
626.182696 111.839 178.7183
630.720274 111.829 178.9907
635.290733 111.820 179.2653
639.894312 111.812 179.5417
644.531250 111.804 179.8197
649.201789 111.797 -179.9009
653.906173 111.791 -179.6201
658.644647 111.786 -179.3377
663.417457 111.781 -179.0536
668.224854 111.777 -178.7675
673.067086 111.774 -178.4794
677.944408 111.771 -178.1891
682.857073 111.769 -177.8969
687.805336 111.768 -177.6031
692.789457 111.767 -177.3082
697.809695 111.767 -177.0125
702.866312 111.768 -176.7160
707.959571 111.770 -176.4191
713.089738 111.773 -176.1223
718.257080 111.777 -175.8260
723.461867 111.782 -175.5311
728.704370 111.788 -175.2379
733.984862 111.796 -174.9471
739.303619 111.804 -174.6592
744.660918 111.814 -174.3751
750.057038 111.825 -174.0960
755.492260 111.837 -173.8234
760.966869 111.851 -173.5594
766.481148 111.866 -173.3060
772.035387 111.882 -173.0662
777.629873 111.900 -172.8432
783.264900 111.918 -172.6415
788.940760 111.936 -172.4659
794.657750 111.953 -172.3221
800.416168 111.969 -172.2162
806.216313 111.981 -172.1538
812.058489 111.987 -172.1381
817.943000 111.984 -172.1675
823.870152 111.968 -172.2321
829.840255 111.935 -172.3098
835.853619 111.882 -172.3631
841.910559 111.807 -172.3376
848.011390 111.712 -172.1657
854.156430 111.604 -171.7786
860.346000 111.495 -171.1260
866.580422 111.398 -170.2000
872.860020 111.329 -169.0499
879.185124 111.298 -167.7730
885.556062 111.307 -166.4827
891.973166 111.350 -165.2736
898.436771 111.419 -164.2011
904.947215 111.503 -163.2823
911.504835 111.595 -162.5076
918.109975 111.689 -161.8538
924.762978 111.782 -161.2946
931.464192 111.872 -160.8059
938.213966 111.959 -160.3679
945.012651 112.043 -159.9662
951.860602 112.124 -159.5906
958.758176 112.203 -159.2345
965.705733 112.280 -158.8935
972.703635 112.356 -158.5652
979.752246 112.430 -158.2480
986.851935 112.505 -157.9409
994.003071 112.579 -157.6433
1001.206027 112.653 -157.3548
1008.461179 112.727 -157.0750
1015.768904 112.802 -156.8039
1023.129584 112.877 -156.5418
1030.543603 112.952 -156.2893
1038.011347 113.028 -156.0470
1045.533205 113.104 -155.8154
1053.109569 113.181 -155.5949
1060.740836 113.259 -155.3856
1068.427401 113.337 -155.1875
1076.169666 113.415 -155.0006
1083.968035 113.494 -154.8247
1091.822915 113.573 -154.6596
1099.734713 113.653 -154.5052
1107.703844 113.733 -154.3614
1115.730723 113.813 -154.2283
1123.815768 113.893 -154.1064
1131.959400 113.973 -153.9955
1140.162045 114.054 -153.8959
1148.424129 114.134 -153.8070
1156.746083 114.215 -153.7285
1165.128342 114.296 -153.6596
1173.571343 114.377 -153.5996
1182.075524 114.458 -153.5484
1190.641331 114.540 -153.5063
1199.269209 114.622 -153.4745
1207.959608 114.704 -153.4543
1216.712981 114.786 -153.4474
1225.529785 114.869 -153.4544
1234.410479 114.951 -153.4748
1243.355526 115.033 -153.5069
1252.365393 115.114 -153.5486
1261.440549 115.194 -153.5985
1270.581467 115.275 -153.6561
1279.788624 115.355 -153.7211
1289.062500 115.435 -153.7941
1298.403578 115.515 -153.8753
1307.812346 115.596 -153.9650
1317.289293 115.676 -154.0636
1326.834914 115.757 -154.1714
1336.449707 115.838 -154.2889
1346.134173 115.918 -154.4169
1355.888816 115.999 -154.5562
1365.714145 116.080 -154.7077
1375.610673 116.160 -154.8720
1385.578915 116.240 -155.0488
1395.619391 116.320 -155.2373
1405.732624 116.399 -155.4355
1415.919142 116.477 -155.6408
1426.179476 116.555 -155.8506
1436.514160 116.633 -156.0634
1446.923734 116.711 -156.2802
1457.408740 116.790 -156.5042
1467.969724 116.870 -156.7392
1478.607238 116.951 -156.9888
1489.321836 117.033 -157.2550
1500.114076 117.116 -157.5389
1510.984521 117.198 -157.8406
1521.933737 117.281 -158.1601
1532.962297 117.363 -158.4972
1544.070773 117.445 -158.8520
1555.259747 117.527 -159.2247
1566.529800 117.608 -159.6158
1577.881521 117.688 -160.0258
1589.315501 117.768 -160.4554
1600.832336 117.847 -160.9055
1612.432627 117.925 -161.3766
1624.116978 118.001 -161.8692
1635.886000 118.077 -162.3837
1647.740304 118.151 -162.9201
1659.680509 118.223 -163.4786
1671.707238 118.294 -164.0589
1683.821118 118.362 -164.6608
1696.022780 118.428 -165.2836
1708.312860 118.491 -165.9270
1720.692000 118.551 -166.5903
1733.160843 118.608 -167.2730
1745.720041 118.662 -167.9746
1758.370248 118.712 -168.6945
1771.112124 118.759 -169.4324
1783.946332 118.802 -170.1874
1796.873543 118.842 -170.9587
1809.894429 118.877 -171.7448
1823.009670 118.908 -172.5444
1836.219950 118.934 -173.3562
1849.525956 118.956 -174.1786
1862.928384 118.972 -175.0102
1876.427931 118.984 -175.8491
1890.025301 118.991 -176.6936
1903.721204 118.992 -177.5415
1917.516352 118.988 -178.3909
1931.411466 118.979 -179.2394
1945.407270 118.964 179.9151
1959.504493 118.944 179.0746
1973.703870 118.919 178.2411
1988.006142 118.889 177.4165
2002.412054 118.854 176.6026
2016.922357 118.814 175.8015
2031.537808 118.769 175.0152
2046.259169 118.720 174.2459
2061.087206 118.666 173.4954
2076.022694 118.608 172.7652
2091.066410 118.547 172.0565
2106.219139 118.481 171.3700
2121.481671 118.413 170.7065
2136.854802 118.341 170.0661
2152.339333 118.267 169.4487
2167.936071 118.190 168.8542
2183.645829 118.110 168.2823
2199.469427 118.029 167.7329
2215.407689 117.945 167.2061
2231.461446 117.858 166.7024
2247.631536 117.770 166.2223
2263.918800 117.679 165.7665
2280.324089 117.587 165.3357
2296.848258 117.493 164.9304
2313.492167 117.398 164.5511
2330.256685 117.301 164.1981
2347.142685 117.204 163.8715
2364.151049 117.105 163.5712
2381.282662 117.006 163.2971
2398.538418 116.906 163.0488
2415.919216 116.806 162.8260
2433.425962 116.706 162.6284
2451.059570 116.606 162.4552
2468.820958 116.505 162.3055
2486.711052 116.405 162.1786
2504.730786 116.306 162.0739
2522.881098 116.206 161.9910
2541.162934 116.107 161.9297
2559.577248 116.008 161.8898
2578.125000 115.910 161.8710
2596.807157 115.812 161.8734
2615.624692 115.714 161.8970
2634.578586 115.617 161.9418
2653.669829 115.520 162.0084
2672.899414 115.424 162.0973
2692.268345 115.329 162.2093
2711.777632 115.234 162.3452
2731.428290 115.139 162.5059
2751.221345 115.046 162.6922
2771.157829 114.953 162.9052
2791.238781 114.861 163.1464
2811.465248 114.770 163.4174
2831.838284 114.681 163.7197
2852.358952 114.593 164.0549
2873.028321 114.508 164.4245
2893.847468 114.425 164.8300
2914.817480 114.345 165.2719
2935.939449 114.270 165.7506
2957.214476 114.199 166.2651
2978.643672 114.133 166.8134
3000.228152 114.073 167.3925
3021.969041 114.020 167.9984
3043.867475 113.975 168.6260
3065.924593 113.937 169.2701
3088.141547 113.907 169.9251
3110.519493 113.885 170.5858
3133.059600 113.870 171.2478
3155.763041 113.863 171.9080
3178.631001 113.862 172.5641
3201.664672 113.869 173.2149
3224.865254 113.882 173.8593
3248.233957 113.902 174.4961
3271.771999 113.930 175.1238
3295.480608 113.964 175.7403
3319.361019 114.006 176.3430
3343.414477 114.056 176.9288
3367.642236 114.113 177.4941
3392.045560 114.178 178.0351
3416.625721 114.251 178.5476
3441.383999 114.332 179.0273
3466.321686 114.421 179.4700
3491.440082 114.518 179.8709
3516.740496 114.622 -179.7749
3542.224247 114.735 -179.4729
3567.892664 114.854 -179.2289
3593.747085 114.981 -179.0493
3619.788858 115.115 -178.9404
3646.019340 115.255 -178.9092
3672.439900 115.402 -178.9630
3699.051913 115.553 -179.1094
3725.856768 115.710 -179.3561
3752.855862 115.869 -179.7108
3780.050603 116.030 179.8193
3807.442408 116.192 179.2272
3835.032705 116.352 178.5068
3862.822933 116.508 177.6533
3890.814540 116.659 176.6628
3919.008986 116.801 175.5335
3947.407741 116.932 174.2650
3976.012284 117.049 172.8593
4004.824108 117.150 171.3214
4033.844715 117.230 169.6589
4063.075616 117.288 167.8833
4092.518337 117.320 166.0089
4122.174412 117.323 164.0540
4152.045387 117.296 162.0402
4182.132820 117.235 159.9926
4212.438278 117.141 157.9388
4242.963342 117.011 155.9089
4273.709604 116.847 153.9340
4304.678665 116.648 152.0463
4335.872141 116.417 150.2778
4367.291658 116.155 148.6594
4398.938854 115.866 147.2197
4430.815378 115.554 145.9836
4462.922893 115.225 144.9703
4495.263072 114.883 144.1912
4527.837601 114.535 143.6481
4560.648179 114.189 143.3314
4593.696515 113.848 143.2200
4626.984334 113.519 143.2825
4660.513370 113.204 143.4817
4694.285371 112.905 143.7796
4728.302098 112.620 144.1433
4762.565324 112.346 144.5489
4797.076835 112.081 144.9833
4831.838432 111.822 145.4438
4866.851925 111.564 145.9354
4902.119140 111.307 146.4682
4937.641916 111.049 147.0549
4973.422105 110.790 147.7083
5009.461572 110.530 148.4401
5045.762195 110.270 149.2604
5082.325868 110.012 150.1776
5119.154496 109.755 151.1980
5156.250000 109.502 152.3267
5193.614313 109.255 153.5674
5231.249383 109.014 154.9235
5269.157173 108.782 156.3976
5307.339658 108.561 157.9915
5345.798829 108.353 159.7025
5384.536691 108.163 161.5201
5423.555263 107.992 163.4224
5462.856580 107.843 165.3757
5502.442691 107.713 167.3434
5542.315659 107.598 169.3009
5582.477563 107.495 171.2485
5622.930497 107.400 173.2098
5663.676569 107.312 175.2169
5704.717904 107.232 177.2957
5746.056642 107.164 179.4594
5787.694937 107.111 -178.2912
5829.634960 107.076 -175.9624
5871.878898 107.061 -173.5645
5914.428953 107.068 -171.1092
5957.287343 107.098 -168.6079
6000.456303 107.153 -166.0718
6043.938083 107.234 -163.5120
6087.734950 107.342 -160.9402
6131.849187 107.479 -158.3695
6176.283094 107.645 -155.8143
6221.038987 107.842 -153.2907
6266.119200 108.069 -150.8165
6311.526083 108.328 -148.4105
6357.262002 108.617 -146.0925
6403.329344 108.938 -143.8826
6449.730508 109.289 -141.8009
6496.467914 109.670 -139.8672
6543.543998 110.080 -138.1004
6590.961215 110.518 -136.5189
6638.722037 110.981 -135.1409
6686.828954 111.469 -133.9839
6735.284473 111.980 -133.0651
6784.091120 112.512 -132.4017
6833.251441 113.064 -132.0120
6882.767998 113.634 -131.9155
6932.643372 114.220 -132.1346
6982.880164 114.818 -132.6942
7033.480992 115.426 -133.6228
7084.448495 116.040 -134.9516
7135.785329 116.652 -136.7137
7187.494171 117.255 -138.9422
7239.577717 117.839 -141.6655
7292.038681 118.389 -144.9028
7344.879799 118.892 -148.6564
7398.103826 119.330 -152.9057
7451.713536 119.686 -157.6018
7505.711724 119.945 -162.6647
7560.101205 120.094 -167.9843
7614.884815 120.124 -173.4267
7670.065409 120.033 -178.8441
7725.645865 119.824 175.9116
7781.629080 119.506 170.9755
7838.017972 119.093 166.4584
7894.815481 118.602 162.4411
7952.024569 118.051 158.9707
8009.648217 117.459 156.0634
8067.689429 116.843 153.7087
8126.151233 116.218 151.8759
8185.036674 115.595 150.5212
8244.348824 114.984 149.5951
8304.090774 114.390 149.0471
8364.265639 113.818 148.8303
8424.876556 113.270 148.9033
8485.926684 112.745 149.2317
8547.419207 112.245 149.7874
8609.357330 111.769 150.5480
8671.744282 111.317 151.4951
8734.583316 110.888 152.6138
8797.877707 110.483 153.8910
8861.630756 110.102 155.3146
8925.845785 109.745 156.8727
8990.526143 109.414 158.5532
9055.675202 109.108 160.3431
9121.296357 108.829 162.2297
9187.393031 108.577 164.1993
9253.968668 108.352 166.2377
9321.026740 108.157 168.3292
9388.570742 107.990 170.4559
9456.604196 107.854 172.5984
9525.130648 107.746 174.7363
9594.153671 107.667 176.8490
9663.676863 107.616 178.9167
9733.703850 107.592 -179.0798
9804.238280 107.593 -177.1585
9875.283832 107.617 -175.3371
9946.844210 107.661 -173.6320
10018.923143 107.725 -172.0589
10091.524390 107.803 -170.6316
10164.651736 107.893 -169.3618
10238.308993 107.992 -168.2578
10312.500000 108.095 -167.3241
10387.228626 108.197 -166.5601
10462.498767 108.295 -165.9596
10538.314345 108.383 -165.5104
10614.679315 108.456 -165.1930
10691.597657 108.512 -164.9807
10769.073381 108.547 -164.8388
10847.110526 108.559 -164.7246
10925.713161 108.547 -164.5889
11004.885382 108.514 -164.3789
11084.631318 108.465 -164.0458
11164.955126 108.406 -163.5547
11245.860993 108.348 -162.8946
11327.353138 108.298 -162.0804
11409.435808 108.261 -161.1425
11492.113283 108.239 -160.1089
11575.389873 108.235 -158.9934
11659.269920 108.248 -157.7947
11743.757796 108.282 -156.5054
11828.857906 108.342 -155.1202
11914.574686 108.436 -153.6440
12000.912606 108.571 -152.0956
12087.876166 108.756 -150.5097
12175.469900 109.001 -148.9394
12263.698373 109.315 -147.4576
12352.566187 109.704 -146.1596
12442.077974 110.171 -145.1629
12532.238400 110.714 -144.6057
12623.052165 111.323 -144.6384
12714.524005 111.981 -145.4107
12806.658687 112.660 -147.0522
12899.461015 113.326 -149.6525
12992.935827 113.937 -153.2412
13087.087996 114.451 -157.7719
13181.922430 114.826 -163.1100
13277.444074 115.027 -169.0290
13373.657907 115.030 -175.2238
13470.568945 114.830 178.6552
13568.182241 114.437 172.9518
13666.502883 113.878 167.9556
13765.535996 113.193 163.8691
13865.286744 112.427 160.7943
13965.760328 111.627 158.7302
14066.961984 110.841 157.5805
14168.896989 110.107 157.1689
14271.570658 109.452 157.2638
14374.988342 108.890 157.6137
14479.155433 108.413 157.9894
14584.077362 108.002 158.2298
14689.759598 107.621 158.2875
14796.207652 107.235 158.2679
14903.427072 106.815 158.4506
15011.423448 106.361 159.2658
15120.202410 105.917 161.1850
15229.769630 105.572 164.4843
15340.130819 105.443 168.9201
15451.291730 105.611 173.5804
15563.258160 106.063 177.2529
15676.035944 106.704 179.0795
15789.630962 107.413 178.8416
15904.049137 108.097 176.7694
16019.296433 108.705 173.2446
16135.378859 109.221 168.6094
16252.302465 109.639 163.0921
16370.073348 109.960 156.8111
16488.697648 110.170 149.8216
16608.181548 110.245 142.1794
16728.531278 110.153 134.0004
16849.753112 109.859 125.4946
16971.853368 109.339 116.9634
17094.838414 108.584 108.7565
17218.714660 107.602 101.2121
17343.488565 106.415 94.6123
17469.166632 105.054 89.1667
17595.755415 103.551 85.0167
17723.261512 101.944 82.2452
17851.691571 100.268 80.8837
17981.052287 98.562 80.9091
18111.350404 96.868 82.2243
18242.592715 95.230 84.6280
18374.786062 93.693 87.7992
18507.937336 92.296 91.3326
18642.053479 91.060 94.8338
18777.141484 89.981 98.0259
18913.208391 89.038 100.7953
19050.261296 88.198 103.1615
19188.307342 87.435 105.2054
19327.353727 86.736 107.0017
19467.407699 86.102 108.5783
19608.476560 85.549 109.9109
19750.567664 85.098 110.9419
19893.688419 84.777 111.6161
20037.846286 84.610 111.9091
