* Measurement data measured by REW V5.20.9
* Source: Головной телефон (TX 384Khz HiFi Audio), MICROPHONE (Общая громкость), L, volume: 0,250. Timing signal peak level -63,5 dBFS, measurement signal peak level -25,8 dBFS
* Format: 256k Log Swept Sine, 1 sweep at -12,0 dBFS using an acoustic timing reference
* Dated: 14.10.2022 20:54:09
* REW Settings:
*  C-weighting compensation: Off
*  Target level: 75.0 dB
* Note: Delay -0,0689 ms (-24 mm, -0,93 in) using estimated IR delay relative to Acoustic reference on  L with no timing offset
* Measurement: VE2 L
* Smoothing: 1/12 octave
* Frequency Step: 96 ppo
* Start Frequency: 20.141602 Hz
*
* Freq(Hz) SPL(dB) Phase(degrees)
20.141602 127.290 -139.7600
20.287556 127.297 -139.8902
20.434568 127.309 -140.0827
20.582645 127.322 -140.3189
20.731796 127.337 -140.5829
20.882027 127.353 -140.8636
21.033346 127.369 -141.1538
21.185763 127.384 -141.4493
21.339284 127.400 -141.7479
21.493917 127.416 -142.0483
21.649671 127.431 -142.3497
21.806553 127.446 -142.6514
21.964572 127.461 -142.9529
22.123737 127.475 -143.2537
22.284054 127.490 -143.5531
22.445534 127.504 -143.8509
22.608183 127.517 -144.1466
22.772012 127.530 -144.4401
22.937027 127.543 -144.7315
23.103238 127.555 -145.0211
23.270654 127.567 -145.3091
23.439282 127.578 -145.5962
23.609133 127.589 -145.8827
23.780215 127.599 -146.1692
23.952536 127.609 -146.4561
24.126106 127.618 -146.7437
24.300934 127.627 -147.0321
24.477028 127.635 -147.3214
24.654399 127.643 -147.6113
24.833055 127.651 -147.9017
25.013005 127.659 -148.1924
25.194260 127.667 -148.4830
25.376828 127.675 -148.7732
25.560719 127.684 -149.0627
25.745942 127.692 -149.3514
25.932508 127.701 -149.6391
26.120426 127.710 -149.9255
26.309705 127.719 -150.2107
26.500356 127.728 -150.4944
26.692388 127.737 -150.7767
26.885812 127.746 -151.0575
27.080638 127.755 -151.3367
27.276876 127.764 -151.6143
27.474535 127.773 -151.8902
27.673627 127.781 -152.1644
27.874161 127.790 -152.4367
28.076149 127.798 -152.7072
28.279600 127.805 -152.9758
28.484526 127.813 -153.2422
28.690937 127.820 -153.5067
28.898843 127.827 -153.7691
29.108256 127.834 -154.0297
29.319186 127.841 -154.2886
29.531645 127.847 -154.5461
29.745644 127.854 -154.8025
29.961193 127.860 -155.0582
30.178304 127.867 -155.3137
30.396989 127.873 -155.5690
30.617258 127.879 -155.8244
30.839123 127.885 -156.0799
31.062596 127.891 -156.3352
31.287688 127.897 -156.5900
31.514412 127.903 -156.8437
31.742778 127.908 -157.0960
31.972800 127.914 -157.3463
32.204488 127.919 -157.5942
32.437855 127.925 -157.8395
32.672913 127.930 -158.0822
32.909674 127.936 -158.3224
33.148151 127.941 -158.5606
33.388356 127.947 -158.7970
33.630302 127.952 -159.0322
33.874001 127.957 -159.2666
34.119466 127.962 -159.5006
34.366710 127.967 -159.7343
34.615745 127.971 -159.9678
34.866585 127.975 -160.2012
35.119243 127.979 -160.4344
35.373731 127.983 -160.6674
35.630064 127.987 -160.9001
35.888254 127.990 -161.1323
36.148315 127.994 -161.3640
36.410261 127.997 -161.5951
36.674104 128.000 -161.8254
36.939860 128.004 -162.0548
37.207542 128.007 -162.2830
37.477163 128.010 -162.5100
37.748738 128.013 -162.7357
38.022281 128.016 -162.9599
38.297806 128.019 -163.1825
38.575327 128.022 -163.4036
38.854860 128.024 -163.6231
39.136419 128.027 -163.8410
39.420017 128.030 -164.0574
39.705671 128.032 -164.2723
39.993395 128.034 -164.4860
40.283203 128.036 -164.6988
40.575112 128.038 -164.9111
40.869136 128.039 -165.1233
41.165290 128.041 -165.3353
41.463591 128.042 -165.5470
41.764053 128.043 -165.7579
42.066693 128.045 -165.9674
42.371525 128.046 -166.1745
42.678567 128.047 -166.3791
42.987834 128.048 -166.5809
43.299341 128.050 -166.7805
43.613106 128.051 -166.9788
43.929145 128.052 -167.1766
44.247473 128.053 -167.3744
44.568109 128.054 -167.5723
44.891068 128.055 -167.7700
45.216367 128.056 -167.9669
45.544023 128.058 -168.1625
45.874054 128.059 -168.3561
46.206476 128.061 -168.5473
46.541307 128.064 -168.7357
46.878565 128.066 -168.9209
47.218266 128.068 -169.1030
47.560429 128.070 -169.2831
47.905072 128.072 -169.4628
48.252212 128.074 -169.6450
48.601867 128.076 -169.8323
48.954056 128.077 -170.0267
49.308798 128.078 -170.2282
49.666109 128.079 -170.4355
50.026010 128.079 -170.6456
50.388520 128.079 -170.8555
50.753656 128.079 -171.0629
51.121437 128.079 -171.2665
51.491884 128.079 -171.4665
51.865016 128.079 -171.6636
52.240851 128.079 -171.8587
52.619410 128.078 -172.0525
53.000712 128.077 -172.2454
53.384777 128.076 -172.4375
53.771625 128.074 -172.6292
54.161276 128.072 -172.8205
54.553751 128.070 -173.0117
54.949070 128.068 -173.2025
55.347254 128.065 -173.3926
55.748323 128.063 -173.5816
56.152298 128.061 -173.7688
56.559201 128.059 -173.9539
56.969052 128.057 -174.1366
57.381873 128.054 -174.3172
57.797686 128.052 -174.4961
58.216512 128.049 -174.6740
58.638373 128.047 -174.8515
59.063291 128.044 -175.0291
59.491288 128.041 -175.2070
59.922386 128.038 -175.3853
60.356608 128.034 -175.5636
60.793977 128.031 -175.7419
61.234515 128.028 -175.9198
61.678246 128.024 -176.0970
62.125192 128.021 -176.2733
62.575377 128.017 -176.4484
63.028824 128.013 -176.6223
63.485557 128.009 -176.7948
63.945599 128.005 -176.9662
64.408975 128.001 -177.1366
64.875709 127.996 -177.3064
65.345825 127.992 -177.4761
65.819348 127.987 -177.6459
66.296302 127.983 -177.8157
66.776713 127.978 -177.9850
67.260604 127.974 -178.1532
67.748002 127.969 -178.3199
68.238932 127.964 -178.4849
68.733420 127.959 -178.6485
69.231490 127.954 -178.8110
69.733170 127.949 -178.9732
70.238485 127.943 -179.1355
70.747463 127.938 -179.2981
71.260128 127.933 -179.4609
71.776508 127.927 -179.6238
72.296630 127.922 -179.7865
72.820521 127.917 -179.9489
73.348209 127.912 179.8892
73.879720 127.906 179.7278
74.415083 127.901 179.5670
74.954326 127.896 179.4066
75.497475 127.890 179.2463
76.044561 127.885 179.0861
76.595612 127.879 178.9260
77.150655 127.873 178.7659
77.709720 127.867 178.6061
78.272837 127.861 178.4467
78.840034 127.855 178.2873
79.411342 127.849 178.1277
79.986789 127.842 177.9676
80.566406 127.835 177.8071
81.150224 127.828 177.6464
81.738272 127.821 177.4860
82.330581 127.814 177.3262
82.927182 127.807 177.1672
83.528107 127.800 177.0089
84.133386 127.792 176.8513
84.743051 127.785 176.6942
85.357134 127.777 176.5374
85.975667 127.768 176.3807
86.598682 127.760 176.2236
87.226212 127.752 176.0662
87.858289 127.744 175.9084
88.494946 127.735 175.7509
89.136217 127.727 175.5945
89.782135 127.718 175.4402
90.432733 127.708 175.2883
91.088046 127.699 175.1379
91.748108 127.689 174.9875
92.412952 127.679 174.8363
93.082615 127.669 174.6842
93.757130 127.659 174.5323
94.436533 127.649 174.3818
95.120859 127.638 174.2338
95.810144 127.628 174.0886
96.504423 127.617 173.9462
97.203734 127.607 173.8060
97.908112 127.596 173.6671
98.617595 127.585 173.5281
99.332219 127.574 173.3875
100.052021 127.562 173.2445
100.777039 127.550 173.0992
101.507311 127.538 172.9531
102.242875 127.526 172.8075
102.983769 127.513 172.6638
103.730032 127.500 172.5224
104.481702 127.487 172.3833
105.238820 127.474 172.2458
106.001424 127.461 172.1092
106.769554 127.448 171.9731
107.543250 127.434 171.8377
108.322553 127.420 171.7032
109.107503 127.406 171.5701
109.898141 127.391 171.4388
110.694508 127.376 171.3093
111.496646 127.361 171.1818
112.304596 127.345 171.0562
113.118402 127.329 170.9328
113.938104 127.312 170.8115
114.763747 127.295 170.6928
115.595372 127.278 170.5770
116.433024 127.260 170.4646
117.276746 127.242 170.3561
118.126581 127.223 170.2524
118.982575 127.204 170.1538
119.844772 127.185 170.0613
120.713217 127.165 169.9758
121.587954 127.145 169.8984
122.469031 127.125 169.8300
123.356492 127.104 169.7718
124.250384 127.084 169.7245
125.150753 127.064 169.6894
126.057647 127.044 169.6678
126.971113 127.026 169.6613
127.891198 127.008 169.6714
128.817950 126.993 169.6992
129.751418 126.980 169.7445
130.691651 126.970 169.8054
131.638696 126.965 169.8786
132.592604 126.965 169.9583
133.553425 126.971 170.0366
134.521208 126.983 170.1038
135.496004 127.001 170.1497
136.477864 127.024 170.1643
137.466839 127.052 170.1390
138.462981 127.082 170.0666
139.466340 127.112 169.9432
140.476971 127.142 169.7681
141.494925 127.170 169.5450
142.520256 127.193 169.2809
143.553016 127.211 168.9853
144.593260 127.223 168.6682
145.641043 127.230 168.3392
146.696418 127.231 168.0070
147.759441 127.226 167.6783
148.830166 127.217 167.3582
149.908651 127.205 167.0502
150.994951 127.189 166.7563
152.089123 127.171 166.4775
153.191223 127.151 166.2133
154.301310 127.129 165.9628
155.419441 127.107 165.7246
156.545674 127.084 165.4974
157.680069 127.060 165.2802
158.822683 127.036 165.0719
159.973578 127.012 164.8718
161.132813 126.987 164.6791
162.300447 126.963 164.4932
163.476543 126.938 164.3132
164.661162 126.914 164.1386
165.854364 126.889 163.9690
167.056213 126.864 163.8041
168.266772 126.839 163.6437
169.486102 126.814 163.4871
170.714268 126.789 163.3341
171.951334 126.765 163.1844
173.197364 126.740 163.0382
174.452424 126.715 162.8954
175.716578 126.690 162.7558
176.989893 126.665 162.6191
178.272434 126.640 162.4848
179.564270 126.616 162.3525
180.865467 126.591 162.2221
182.176092 126.566 162.0934
183.496216 126.541 161.9662
184.825905 126.516 161.8406
186.165229 126.491 161.7164
187.514259 126.466 161.5937
188.873065 126.441 161.4725
190.241717 126.415 161.3528
191.620287 126.390 161.2346
193.008847 126.365 161.1176
194.407468 126.339 161.0020
195.816225 126.314 160.8877
197.235190 126.288 160.7748
198.664438 126.262 160.6634
200.104042 126.237 160.5536
201.554078 126.211 160.4456
203.014622 126.185 160.3391
204.485750 126.159 160.2345
205.967538 126.132 160.1316
207.460064 126.106 160.0306
208.963405 126.079 159.9314
210.477640 126.053 159.8339
212.002848 126.026 159.7380
213.539108 126.000 159.6434
215.086500 125.973 159.5500
216.645105 125.946 159.4577
218.215005 125.919 159.3668
219.796281 125.892 159.2772
221.389015 125.866 159.1889
222.993292 125.839 159.1019
224.609193 125.812 159.0162
226.236804 125.785 158.9315
227.876209 125.758 158.8477
229.527494 125.731 158.7646
231.190745 125.704 158.6820
232.866048 125.678 158.5996
234.553491 125.651 158.5173
236.253163 125.624 158.4348
237.965150 125.597 158.3519
239.689544 125.570 158.2686
241.426433 125.543 158.1848
243.175909 125.516 158.1008
244.938062 125.489 158.0166
246.712984 125.461 157.9325
248.500768 125.433 157.8484
250.301507 125.405 157.7649
252.115295 125.376 157.6821
253.942226 125.347 157.6003
255.782396 125.318 157.5197
257.635901 125.288 157.4403
259.502837 125.258 157.3624
261.383301 125.227 157.2862
263.277392 125.196 157.2118
265.185209 125.165 157.1393
267.106850 125.134 157.0691
269.042417 125.102 157.0015
270.992009 125.070 156.9369
272.955729 125.037 156.8755
274.933678 125.005 156.8170
276.925961 124.972 156.7615
278.932681 124.938 156.7090
280.953942 124.905 156.6600
282.989850 124.871 156.6147
285.040511 124.837 156.5735
287.106032 124.803 156.5365
289.186521 124.769 156.5042
291.282086 124.735 156.4768
293.392836 124.700 156.4550
295.518881 124.666 156.4393
297.660333 124.631 156.4304
299.817302 124.597 156.4284
301.989902 124.563 156.4339
304.178245 124.530 156.4470
306.382446 124.498 156.4675
308.602620 124.467 156.4947
310.838882 124.438 156.5272
313.091348 124.410 156.5633
315.360137 124.385 156.6001
317.645367 124.362 156.6343
319.947156 124.341 156.6616
322.265625 124.322 156.6776
324.600895 124.305 156.6781
326.953086 124.288 156.6601
329.322323 124.272 156.6221
331.708729 124.255 156.5646
334.112427 124.236 156.4897
336.533543 124.215 156.4012
338.972204 124.192 156.3036
341.428536 124.166 156.2016
343.902668 124.138 156.0992
346.394729 124.107 155.9999
348.904848 124.075 155.9064
351.433156 124.040 155.8205
353.979786 124.005 155.7431
356.544869 123.968 155.6746
359.128540 123.930 155.6145
361.730934 123.892 155.5623
364.352185 123.854 155.5175
366.992431 123.815 155.4795
369.651810 123.776 155.4476
372.330459 123.737 155.4215
375.028519 123.698 155.4005
377.746130 123.658 155.3844
380.483434 123.619 155.3727
383.240574 123.580 155.3653
386.017693 123.541 155.3619
388.814937 123.502 155.3622
391.632450 123.463 155.3661
394.470380 123.424 155.3733
397.328875 123.385 155.3835
400.208084 123.346 155.3967
403.108157 123.307 155.4128
406.029245 123.268 155.4319
408.971500 123.229 155.4541
411.935076 123.190 155.4794
414.920127 123.152 155.5078
417.926810 123.113 155.5389
420.955280 123.074 155.5726
424.005695 123.035 155.6088
427.078215 122.996 155.6474
430.173000 122.957 155.6886
433.290211 122.918 155.7324
436.430010 122.879 155.7787
439.592562 122.841 155.8276
442.778031 122.802 155.8792
445.986583 122.763 155.9334
449.218386 122.724 155.9904
452.473607 122.685 156.0499
455.752418 122.646 156.1121
459.054987 122.607 156.1768
462.381489 122.568 156.2444
465.732096 122.529 156.3150
469.106983 122.490 156.3889
472.506325 122.451 156.4661
475.930301 122.411 156.5463
479.379088 122.372 156.6296
482.852867 122.333 156.7157
486.351817 122.293 156.8046
489.876123 122.254 156.8962
493.425968 122.214 156.9904
497.001536 122.175 157.0873
500.603014 122.136 157.1870
504.230589 122.097 157.2897
507.884452 122.058 157.3956
511.564792 122.019 157.5049
515.271802 121.980 157.6179
519.005673 121.941 157.7345
522.766602 121.902 157.8547
526.554785 121.864 157.9783
530.370418 121.825 158.1053
534.213700 121.786 158.2358
538.084833 121.747 158.3699
541.984018 121.709 158.5079
545.911457 121.670 158.6498
549.867357 121.631 158.7960
553.851922 121.593 158.9465
557.865362 121.554 159.1014
561.907884 121.516 159.2607
565.979700 121.477 159.4244
570.081022 121.439 159.5928
574.212064 121.401 159.7661
578.373042 121.364 159.9442
582.564171 121.327 160.1272
586.785671 121.290 160.3148
591.037762 121.254 160.5069
595.320665 121.219 160.7030
599.634604 121.184 160.9026
603.979804 121.150 161.1051
608.356491 121.116 161.3100
612.764893 121.083 161.5167
617.205240 121.051 161.7248
621.677763 121.019 161.9338
626.182696 120.988 162.1434
630.720274 120.956 162.3537
635.290733 120.925 162.5646
639.894312 120.894 162.7767
644.531250 120.863 162.9905
649.201789 120.832 163.2063
653.906173 120.801 163.4247
658.644647 120.769 163.6463
663.417457 120.738 163.8716
668.224854 120.707 164.1010
673.067086 120.675 164.3353
677.944408 120.644 164.5747
682.857073 120.613 164.8198
687.805336 120.582 165.0707
692.789457 120.552 165.3274
697.809695 120.521 165.5900
702.866312 120.492 165.8585
707.959571 120.462 166.1327
713.089738 120.433 166.4124
718.257080 120.405 166.6974
723.461867 120.378 166.9879
728.704370 120.350 167.2842
733.984862 120.324 167.5864
739.303619 120.298 167.8943
744.660918 120.273 168.2079
750.057038 120.249 168.5267
755.492260 120.225 168.8506
760.966869 120.203 169.1794
766.481148 120.181 169.5129
772.035387 120.160 169.8513
777.629873 120.140 170.1945
783.264900 120.121 170.5427
788.940760 120.103 170.8958
794.657750 120.086 171.2539
800.416168 120.070 171.6172
806.216313 120.055 171.9854
812.058489 120.041 172.3581
817.943000 120.029 172.7348
823.870152 120.018 173.1150
829.840255 120.008 173.4984
835.853619 119.999 173.8851
841.910559 119.992 174.2748
848.011390 119.986 174.6675
854.156430 119.981 175.0629
860.346000 119.979 175.4606
866.580422 119.977 175.8604
872.860020 119.978 176.2620
879.185124 119.979 176.6650
885.556062 119.983 177.0689
891.973166 119.988 177.4734
898.436771 119.995 177.8779
904.947215 120.004 178.2820
911.504835 120.014 178.6849
918.109975 120.027 179.0861
924.762978 120.041 179.4850
931.464192 120.057 179.8813
938.213966 120.074 -179.7253
945.012651 120.094 -179.3355
951.860602 120.115 -178.9499
958.758176 120.137 -178.5691
965.705733 120.162 -178.1940
972.703635 120.188 -177.8252
979.752246 120.216 -177.4634
986.851935 120.245 -177.1091
994.003071 120.276 -176.7628
1001.206027 120.309 -176.4251
1008.461179 120.343 -176.0966
1015.768904 120.378 -175.7779
1023.129584 120.414 -175.4694
1030.543603 120.451 -175.1717
1038.011347 120.490 -174.8850
1045.533205 120.530 -174.6096
1053.109569 120.570 -174.3456
1060.740836 120.611 -174.0930
1068.427401 120.653 -173.8520
1076.169666 120.696 -173.6227
1083.968035 120.738 -173.4051
1091.822915 120.781 -173.1992
1099.734713 120.825 -173.0049
1107.703844 120.868 -172.8223
1115.730723 120.911 -172.6513
1123.815768 120.955 -172.4918
1131.959400 120.998 -172.3434
1140.162045 121.040 -172.2058
1148.424129 121.083 -172.0790
1156.746083 121.125 -171.9626
1165.128342 121.166 -171.8560
1173.571343 121.207 -171.7585
1182.075524 121.247 -171.6693
1190.641331 121.287 -171.5875
1199.269209 121.326 -171.5128
1207.959608 121.363 -171.4447
1216.712981 121.400 -171.3829
1225.529785 121.437 -171.3269
1234.410479 121.472 -171.2762
1243.355526 121.506 -171.2300
1252.365393 121.540 -171.1878
1261.440549 121.573 -171.1491
1270.581467 121.604 -171.1134
1279.788624 121.635 -171.0805
1289.062500 121.666 -171.0499
1298.403578 121.695 -171.0215
1307.812346 121.724 -170.9949
1317.289293 121.752 -170.9696
1326.834914 121.779 -170.9453
1336.449707 121.806 -170.9214
1346.134173 121.832 -170.8979
1355.888816 121.857 -170.8745
1365.714145 121.882 -170.8511
1375.610673 121.906 -170.8280
1385.578915 121.930 -170.8051
1395.619391 121.953 -170.7825
1405.732624 121.976 -170.7599
1415.919142 121.999 -170.7366
1426.179476 122.021 -170.7124
1436.514160 122.043 -170.6869
1446.923734 122.064 -170.6603
1457.408740 122.085 -170.6328
1467.969724 122.106 -170.6049
1478.607238 122.127 -170.5768
1489.321836 122.147 -170.5485
1500.114076 122.167 -170.5197
1510.984521 122.187 -170.4902
1521.933737 122.207 -170.4596
1532.962297 122.227 -170.4278
1544.070773 122.246 -170.3947
1555.259747 122.265 -170.3607
1566.529800 122.284 -170.3257
1577.881521 122.303 -170.2901
1589.315501 122.322 -170.2537
1600.832336 122.342 -170.2166
1612.432627 122.361 -170.1789
1624.116978 122.380 -170.1408
1635.886000 122.399 -170.1026
1647.740304 122.419 -170.0643
1659.680509 122.438 -170.0260
1671.707238 122.457 -169.9881
1683.821118 122.476 -169.9509
1696.022780 122.495 -169.9149
1708.312860 122.514 -169.8801
1720.692000 122.533 -169.8464
1733.160843 122.551 -169.8138
1745.720041 122.570 -169.7819
1758.370248 122.588 -169.7507
1771.112124 122.605 -169.7199
1783.946332 122.622 -169.6891
1796.873543 122.639 -169.6578
1809.894429 122.655 -169.6258
1823.009670 122.670 -169.5927
1836.219950 122.685 -169.5579
1849.525956 122.700 -169.5207
1862.928384 122.714 -169.4801
1876.427931 122.728 -169.4353
1890.025301 122.741 -169.3858
1903.721204 122.753 -169.3309
1917.516352 122.766 -169.2701
1931.411466 122.777 -169.2027
1945.407270 122.789 -169.1276
1959.504493 122.801 -169.0443
1973.703870 122.813 -168.9521
1988.006142 122.825 -168.8506
2002.412054 122.838 -168.7395
2016.922357 122.851 -168.6184
2031.537808 122.866 -168.4870
2046.259169 122.882 -168.3456
2061.087206 122.899 -168.1948
2076.022694 122.918 -168.0356
2091.066410 122.939 -167.8690
2106.219139 122.962 -167.6962
2121.481671 122.988 -167.5188
2136.854802 123.017 -167.3385
2152.339333 123.049 -167.1577
2167.936071 123.083 -166.9788
2183.645829 123.121 -166.8046
2199.469427 123.163 -166.6381
2215.407689 123.207 -166.4829
2231.461446 123.256 -166.3430
2247.631536 123.307 -166.2229
2263.918800 123.361 -166.1268
2280.324089 123.418 -166.0590
2296.848258 123.478 -166.0233
2313.492167 123.538 -166.0234
2330.256685 123.599 -166.0623
2347.142685 123.660 -166.1425
2364.151049 123.720 -166.2652
2381.282662 123.777 -166.4306
2398.538418 123.830 -166.6376
2415.919216 123.879 -166.8841
2433.425962 123.923 -167.1668
2451.059570 123.960 -167.4810
2468.820958 123.990 -167.8210
2486.711052 124.012 -168.1798
2504.730786 124.026 -168.5502
2522.881098 124.031 -168.9245
2541.162934 124.027 -169.2952
2559.577248 124.014 -169.6548
2578.125000 123.994 -169.9959
2596.807157 123.965 -170.3121
2615.624692 123.929 -170.5974
2634.578586 123.886 -170.8468
2653.669829 123.838 -171.0564
2672.899414 123.784 -171.2229
2692.268345 123.727 -171.3437
2711.777632 123.665 -171.4170
2731.428290 123.602 -171.4420
2751.221345 123.536 -171.4185
2771.157829 123.469 -171.3471
2791.238781 123.402 -171.2286
2811.465248 123.336 -171.0643
2831.838284 123.270 -170.8555
2852.358952 123.206 -170.6041
2873.028321 123.144 -170.3119
2893.847468 123.084 -169.9811
2914.817480 123.027 -169.6136
2935.939449 122.973 -169.2114
2957.214476 122.923 -168.7765
2978.643672 122.876 -168.3105
3000.228152 122.834 -167.8153
3021.969041 122.796 -167.2927
3043.867475 122.763 -166.7445
3065.924593 122.735 -166.1727
3088.141547 122.713 -165.5801
3110.519493 122.698 -164.9701
3133.059600 122.689 -164.3475
3155.763041 122.687 -163.7176
3178.631001 122.692 -163.0868
3201.664672 122.704 -162.4615
3224.865254 122.723 -161.8480
3248.233957 122.749 -161.2520
3271.771999 122.780 -160.6782
3295.480608 122.816 -160.1302
3319.361019 122.856 -159.6104
3343.414477 122.900 -159.1201
3367.642236 122.947 -158.6601
3392.045560 122.997 -158.2312
3416.625721 123.048 -157.8337
3441.383999 123.101 -157.4685
3466.321686 123.156 -157.1366
3491.440082 123.211 -156.8392
3516.740496 123.267 -156.5780
3542.224247 123.323 -156.3547
3567.892664 123.378 -156.1707
3593.747085 123.432 -156.0277
3619.788858 123.484 -155.9267
3646.019340 123.533 -155.8685
3672.439900 123.578 -155.8533
3699.051913 123.618 -155.8808
3725.856768 123.652 -155.9494
3752.855862 123.680 -156.0567
3780.050603 123.699 -156.1988
3807.442408 123.708 -156.3705
3835.032705 123.708 -156.5656
3862.822933 123.696 -156.7766
3890.814540 123.671 -156.9949
3919.008986 123.634 -157.2106
3947.407741 123.583 -157.4127
3976.012284 123.518 -157.5895
4004.824108 123.440 -157.7288
4033.844715 123.347 -157.8178
4063.075616 123.242 -157.8435
4092.518337 123.124 -157.7931
4122.174412 122.995 -157.6543
4152.045387 122.856 -157.4156
4182.132820 122.708 -157.0667
4212.438278 122.553 -156.5989
4242.963342 122.393 -156.0048
4273.709604 122.231 -155.2786
4304.678665 122.068 -154.4163
4335.872141 121.907 -153.4154
4367.291658 121.749 -152.2759
4398.938854 121.599 -150.9990
4430.815378 121.457 -149.5878
4462.922893 121.326 -148.0467
4495.263072 121.208 -146.3817
4527.837601 121.105 -144.6005
4560.648179 121.019 -142.7123
4593.696515 120.952 -140.7277
4626.984334 120.907 -138.6588
4660.513370 120.884 -136.5197
4694.285371 120.885 -134.3261
4728.302098 120.911 -132.0958
4762.565324 120.962 -129.8478
4797.076835 121.040 -127.6016
4831.838432 121.144 -125.3768
4866.851925 121.273 -123.1920
4902.119140 121.427 -121.0644
4937.641916 121.605 -119.0096
4973.422105 121.806 -117.0421
5009.461572 122.028 -115.1768
5045.762195 122.272 -113.4294
5082.325868 122.535 -111.8176
5119.154496 122.815 -110.3606
5156.250000 123.110 -109.0786
5193.614313 123.417 -107.9915
5231.249383 123.732 -107.1165
5269.157173 124.048 -106.4662
5307.339658 124.362 -106.0473
5345.798829 124.667 -105.8589
5384.536691 124.958 -105.8924
5423.555263 125.229 -106.1318
5462.856580 125.476 -106.5535
5502.442691 125.694 -107.1281
5542.315659 125.880 -107.8211
5582.477563 126.032 -108.5953
5622.930497 126.150 -109.4114
5663.676569 126.234 -110.2307
5704.717904 126.286 -111.0160
5746.056642 126.308 -111.7337
5787.694937 126.303 -112.3550
5829.634960 126.276 -112.8564
5871.878898 126.230 -113.2206
5914.428953 126.170 -113.4365
5957.287343 126.102 -113.4985
6000.456303 126.028 -113.4069
6043.938083 125.954 -113.1669
6087.734950 125.883 -112.7882
6131.849187 125.819 -112.2845
6176.283094 125.765 -111.6727
6221.038987 125.722 -110.9720
6266.119200 125.693 -110.2038
6311.526083 125.679 -109.3910
6357.262002 125.681 -108.5579
6403.329344 125.700 -107.7305
6449.730508 125.734 -106.9356
6496.467914 125.784 -106.2017
6543.543998 125.848 -105.5581
6590.961215 125.923 -105.0360
6638.722037 126.005 -104.6667
6686.828954 126.089 -104.4810
6735.284473 126.169 -104.5065
6784.091120 126.235 -104.7622
6833.251441 126.274 -105.2501
6882.767998 126.271 -105.9422
6932.643372 126.211 -106.7609
6982.880164 126.076 -107.5562
7033.480992 125.860 -108.0882
7084.448495 125.572 -108.0424
7135.785329 125.252 -107.1289
7187.494171 124.966 -105.3001
7239.577717 124.781 -102.9407
7292.038681 124.715 -100.7170
7344.879799 124.727 -99.1305
7398.103826 124.754 -98.2767
7451.713536 124.742 -97.9583
7505.711724 124.667 -97.8881
7560.101205 124.523 -97.8080
7614.884815 124.318 -97.5247
7670.065409 124.064 -96.9075
7725.645865 123.778 -95.8741
7781.629080 123.476 -94.3772
7838.017972 123.176 -92.3945
7894.815481 122.893 -89.9240
7952.024569 122.644 -86.9815
8009.648217 122.447 -83.6028
8067.689429 122.317 -79.8482
8126.151233 122.271 -75.8072
8185.036674 122.321 -71.6039
8244.348824 122.477 -67.3963
8304.090774 122.741 -63.3699
8364.265639 123.105 -59.7228
8424.876556 123.554 -56.6430
8485.926684 124.065 -54.2865
8547.419207 124.605 -52.7576
8609.357330 125.143 -52.0981
8671.744282 125.644 -52.2833
8734.583316 126.078 -53.2251
8797.877707 126.417 -54.7794
8861.630756 126.644 -56.7587
8925.845785 126.748 -58.9491
8990.526143 126.730 -61.1321
9055.675202 126.597 -63.1061
9121.296357 126.367 -64.7060
9187.393031 126.060 -65.8158
9253.968668 125.700 -66.3720
9321.026740 125.308 -66.3570
9388.570742 124.906 -65.7889
9456.604196 124.509 -64.7113
9525.130648 124.129 -63.1840
9594.153671 123.777 -61.2751
9663.676863 123.458 -59.0526
9733.703850 123.172 -56.5773
9804.238280 122.921 -53.8925
9875.283832 122.701 -51.0166
9946.844210 122.514 -47.9368
10018.923143 122.361 -44.6124
10091.524390 122.253 -40.9931
10164.651736 122.210 -37.0563
10238.308993 122.253 -32.8538
10312.500000 122.404 -28.5434
10387.228626 122.673 -24.3722
10462.498767 123.055 -20.6099
10538.314345 123.531 -17.4793
10614.679315 124.074 -15.1250
10691.597657 124.658 -13.6259
10769.073381 125.255 -13.0197
10847.110526 125.840 -13.3205
10925.713161 126.382 -14.5198
11004.885382 126.854 -16.5782
11084.631318 127.225 -19.4133
11164.955126 127.466 -22.8891
11245.860993 127.553 -26.8139
11327.353138 127.471 -30.9488
11409.435808 127.214 -35.0290
11492.113283 126.788 -38.7932
11575.389873 126.210 -42.0112
11659.269920 125.501 -44.5038
11743.757796 124.690 -46.1505
11828.857906 123.807 -46.8888
11914.574686 122.880 -46.7079
12000.912606 121.937 -45.6398
12087.876166 121.002 -43.7482
12175.469900 120.093 -41.1178
12263.698373 119.226 -37.8436
12352.566187 118.412 -34.0223
12442.077974 117.656 -29.7445
12532.238400 116.962 -25.0911
12623.052165 116.332 -20.1311
12714.524005 115.764 -14.9214
12806.658687 115.257 -9.5082
12899.461015 114.809 -3.9278
12992.935827 114.420 1.7906
13087.087996 114.088 7.6238
13181.922430 113.814 13.5512
13277.444074 113.597 19.5531
13373.657907 113.440 25.6091
13470.568945 113.344 31.6968
13568.182241 113.313 37.7905
13666.502883 113.352 43.8595
13765.535996 113.464 49.8656
13865.286744 113.657 55.7600
13965.760328 113.934 61.4795
14066.961984 114.302 66.9424
14168.896989 114.764 72.0454
14271.570658 115.320 76.6616
14374.988342 115.966 80.6444
14479.155433 116.689 83.8373
14584.077362 117.470 86.0913
14689.759598 118.280 87.2828
14796.207652 119.086 87.3291
14903.427072 119.852 86.1988
15011.423448 120.540 83.9194
15120.202410 121.115 80.5797
15229.769630 121.546 76.3272
15340.130819 121.807 71.3583
15451.291730 121.887 65.8979
15563.258160 121.779 60.1724
15676.035944 121.489 54.3870
15789.630962 121.022 48.7161
15904.049137 120.387 43.3102
16019.296433 119.591 38.3099
16135.378859 118.641 33.8590
16252.302465 117.545 30.1061
16370.073348 116.315 27.1978
16488.697648 114.964 25.2646
16608.181548 113.512 24.4075
16728.531278 111.981 24.6825
16849.753112 110.396 26.0868
16971.853368 108.784 28.5455
17094.838414 107.171 31.9079
17218.714660 105.579 35.9624
17343.488565 104.023 40.4779
17469.166632 102.507 45.2615
17595.755415 101.027 50.2074
17723.261512 99.567 55.3175
17851.691571 98.111 60.6877
17981.052287 96.644 66.4716
18111.350404 95.157 72.8349
18242.592715 93.648 79.9129
18374.786062 92.122 87.7812
18507.937336 90.587 96.4490
18642.053479 89.049 105.8778
18777.141484 87.515 116.0196
18913.208391 85.988 126.8700
19050.261296 84.469 138.5251
19188.307342 82.963 151.2145
19327.353727 81.483 165.2633
19467.407699 80.055 -179.1138
19608.476560 78.728 -162.2807
19750.567664 77.576 -145.7486
19893.688419 76.703 -132.0440
20037.846286 76.227 -123.5566
